vertical_Accel_x,vertical_Accel_y,vertical_Accel_z,accel_time_list
0.863,7.49,-6.345,0.0
1.392,6.476,-5.688,0.002
0.557,8.171,-6.386,0.004
1.271,6.914,-7.257,0.007
1.1,6.5,-7.5,0.092
0.824,7.473,-5.837,0.093
1.998,9.294,-3.347,0.095
-0.586,6.443,-7.571,0.101
1.767,7.502,-6.551,0.102
0.902,7.706,-6.453,0.104
1.365,7.196,-6.198,0.19
0.765,7.396,-6.198,0.192
0.657,7.571,-5.886,0.194
1.006,7.318,-6.359,0.195
0.804,7.412,-6.706,0.197
0.937,7.51,-6.555,0.294
0.814,7.443,-6.271,0.296
0.814,7.443,-6.271,0.298
0.922,7.467,-6.184,0.299
0.947,7.441,-6.32,0.311
0.947,7.441,-6.32,0.39
0.922,7.367,-6.384,0.392
0.922,7.367,-6.384,0.394
0.898,7.394,-6.247,0.395
0.947,7.441,-6.32,0.397
0.873,7.32,-6.31,0.49
0.947,7.441,-6.32,0.496
0.814,7.443,-6.271,0.498
0.814,7.443,-6.271,0.5
0.79,7.369,-6.335,0.595
0.839,7.416,-6.408,0.597
0.839,7.416,-6.408,0.599
0.839,7.416,-6.408,0.602
0.839,7.416,-6.408,0.604
0.839,7.416,-6.408,0.69
0.78,7.439,-6.569,0.692
0.794,7.582,-6.741,0.694
0.833,7.798,-6.849,0.695
0.724,7.773,-6.937,0.705
0.714,7.943,-6.971,0.79
0.729,8.286,-6.743,0.792
0.467,8.602,-6.851,0.793
0.702,8.806,-7.653,0.795
0.704,9.712,-8.706,0.797
1.42,10.483,-8.268,0.891
1.273,11.323,-6.843,0.892
0.034,12.171,-6.447,0.894
-0.771,11.089,-6.397,0.896
1.009,10.507,-4.129,0.897
4.558,9.061,-0.758,0.991
5.184,8.204,0.949,0.992
7.2,6.9,3.0,0.994
7.657,4.886,4.177,0.996
10.255,3.336,5.445,0.997
10.486,0.482,-0.944,1.09
12.501,-1.914,-2.304,1.092
16.552,-3.271,-2.706,1.093
16.896,-3.844,-1.783,1.103
12.975,-3.278,-1.801,1.105
5.944,0.453,-3.889,1.19
2.092,-0.369,-2.677,1.192
0.938,-2.154,-3.915,1.193
1.125,-3.73,-5.719,1.198
4.517,-3.551,-4.677,1.2
4.608,-1.919,-5.378,1.29
4.877,-3.858,-5.538,1.292
6.737,-3.75,-4.474,1.293
8.56,-5.206,-3.809,1.295
8.114,-6.108,-3.312,1.297
8.096,-7.012,-2.894,1.389
8.565,-6.204,-3.698,1.395
8.916,-4.951,-4.024,1.397
9.437,-3.09,-5.755,1.399
7.702,0.306,-8.553,1.4
3.618,-2.445,-12.456,1.491
-10.097,14.857,-17.58,1.492
30.243,-3.706,-20.326,1.502
1.828,-18.19,-8.324,1.504
-2.622,-10.797,-3.437,1.505
-7.254,-3.749,1.894,1.59
-1.987,-9.388,-2.148,1.593
4.537,-11.02,-9.065,1.595
6.228,-10.29,0.276,1.597
6.652,-12.622,6.56,1.598
6.813,-12.128,1.07,1.69
5.483,-8.621,-3.675,1.692
0.945,-8.011,-6.332,1.697
-21.319,15.46,-21.518,1.699
15.195,-18.828,-6.166,1.7
5.675,-11.554,-5.457,1.79
8.518,-3.045,-14.556,1.793
2.893,-5.899,-4.612,1.794
-2.847,-9.736,0.333,1.796
1.724,-10.632,-0.016,1.798
6.441,-9.159,-4.704,1.89
7.841,-9.759,-1.304,1.9
10.704,-10.496,-1.319,1.902
8.348,-9.152,-1.641,1.903
3.889,-7.611,-3.144,1.905
-2.859,-6.059,-8.104,1.99
-21.467,11.933,-15.767,1.992
12.137,-8.463,-17.185,2.0
4.493,-5.807,-9.963,2.001
1.796,-4.704,-9.481,2.003
0.398,-8.754,-2.362,2.09
0.398,-10.454,0.738,2.092
8.179,-8.612,-3.497,2.098
7.833,-10.267,-2.467,2.1
6.796,-10.004,0.719,2.101
6.121,-8.781,-3.494,2.194
1.742,-8.182,-5.827,2.195
-18.453,-1.087,-13.296,2.197
9.358,-1.698,-14.833,2.199
5.597,-9.457,-6.02,2.297
1.618,-8.045,-11.756,2.307
-1.236,-7.895,-8.062,2.308
0.191,-7.07,-2.559,2.31
1.94,-9.763,-2.245,2.312
5.155,-7.819,-7.556,2.39
5.944,-7.405,-6.179,2.392
7.431,-7.614,-6.837,2.394
7.725,-8.181,-6.784,2.399
3.517,-7.771,-5.166,2.4
-0.125,-8.79,-3.843,2.49
-6.135,-7.186,-6.481,2.492
-10.376,8.53,-17.63,2.493
7.654,-5.141,-14.892,2.495
1.174,-8.426,-5.97,2.498
0.926,-6.474,-7.93,2.592
0.837,-7.663,-3.085,2.599
1.522,-10.378,-2.911,2.6
5.333,-8.267,-5.267,2.602
6.607,-8.693,-3.137,2.604
6.354,-9.243,-5.091,2.69
5.884,-7.605,-6.099,2.696
2.041,-6.576,-6.285,2.697
-4.035,-4.581,-8.104,2.699
-7.728,8.531,-12.565,2.701
10.725,-11.481,-10.88,2.815
1.678,-4.189,-3.178,2.817
0.06,-6.671,-9.732,2.818
-1.611,-9.544,-7.289,2.82
-0.744,-7.178,-3.856,2.822
1.891,-6.913,-6.562,2.892
4.832,-6.902,-6.794,2.893
7.077,-7.385,-4.745,2.895
7.851,-9.023,-4.53,2.897
6.785,-6.872,-5.183,2.898
4.67,-5.445,-6.966,2.9
-0.031,-6.547,-7.786,2.989
-21.633,-1.767,-10.933,2.99
3.518,-2.527,-16.573,2.996
1.854,-5.641,-7.492,3.006
1.384,-6.654,-7.28,3.096
-3.369,-7.353,-7.514,3.097
-1.467,-6.933,-4.367,3.099
4.404,-7.462,-6.805,3.101
8.344,-6.578,-6.356,3.102
7.301,-7.276,-6.465,3.19
7.616,-6.995,-5.401,3.192
4.817,-8.071,-5.566,3.193
-0.711,-6.486,-6.123,3.199
-18.928,-0.69,-8.422,3.201
-0.134,1.674,-16.307,3.295
1.309,-7.864,-6.336,3.297
-1.587,-6.925,-4.641,3.299
0.267,-4.867,-11.033,3.302
0.367,-7.333,-6.433,3.304
1.726,-6.462,-6.015,3.394
6.074,-7.738,-6.385,3.396
6.96,-7.611,-6.368,3.398
7.164,-7.004,-5.087,3.407
5.828,-7.809,-4.774,3.409
0.503,-7.229,-5.694,3.493
-24.553,3.367,-7.873,3.495
11.165,-3.981,-19.704,3.497
-1.78,-6.6,-4.46,3.498
-1.177,-5.029,-6.454,3.5
-1.537,-6.805,-10.228,3.59
-1.36,-5.916,-7.951,3.592
1.689,-6.556,-8.211,3.593
5.934,-6.874,-6.693,3.595
6.97,-6.945,-4.866,3.6
7.767,-5.531,-7.406,3.69
6.073,-6.906,-6.061,3.692
2.371,-6.414,-6.243,3.693
-2.676,-4.402,-8.92,3.695
-26.796,4.016,-8.837,3.697
12.162,-6.657,-16.128,3.789
-2.832,-9.398,-0.806,3.795
1.153,-4.37,-8.389,3.804
1.243,-4.536,-11.791,3.806
-1.379,-6.768,-6.796,3.808
2.151,-4.796,-8.159,3.889
4.633,-5.169,-8.494,3.89
6.353,-6.288,-7.278,3.892
7.298,-6.308,-6.882,3.894
5.679,-7.032,-5.204,3.989
1.909,-5.687,-7.238,3.991
-23.698,5.153,-14.26,3.996
7.821,-6.668,-18.296,3.998
0.421,-9.468,-2.596,3.999
-0.047,-3.601,-8.566,4.089
-2.971,-6.672,-10.362,4.091
-2.523,-6.871,-6.596,4.093
1.041,-7.357,-5.877,4.094
3.069,-7.847,-5.286,4.096
4.08,-5.482,-7.316,4.189
7.3,-5.9,-7.8,4.192
7.773,-6.006,-6.561,4.201
4.404,-6.284,-6.137,4.203
-1.435,-5.339,-7.788,4.204
-16.268,-5.193,-8.14,4.289
4.931,-0.253,-16.214,4.291
2.668,-7.707,-3.76,4.296
-0.793,-6.983,-7.684,4.298
-2.005,-7.798,-7.469,4.3
-2.522,-4.39,-8.098,4.392
1.41,-3.659,-9.692,4.393
4.655,-4.68,-8.396,4.395
5.771,-5.514,-7.643,4.397
7.733,-5.369,-7.694,4.398
6.892,-5.933,-6.727,4.49
2.986,-6.457,-6.271,4.491
-4.755,-5.12,-7.404,4.493
-15.606,6.376,-10.845,4.495
8.1,-9.6,-14.8,4.496
-3.974,-2.449,-3.333,4.59
-2.552,-3.121,-11.3,4.609
-4.992,-8.437,-8.967,4.612
-0.615,-3.946,-8.133,4.615
3.657,-5.677,-8.633,4.616
4.494,-5.024,-7.145,4.689
6.18,-5.682,-7.716,4.691
6.116,-5.935,-6.947,4.697
3.596,-5.916,-6.563,4.7
-1.535,-4.439,-8.488,4.702
-29.214,2.834,-13.2,4.794
12.278,-8.929,-14.633,4.796
1.216,-4.274,-5.533,4.799
0.89,-1.224,-10.7,4.801
-3.521,-8.048,-7.4,4.802
-2.77,-5.308,-9.333,4.889
1.809,-3.156,-9.833,4.891
4.289,-5.905,-7.133,4.893
5.633,-5.867,-6.433,4.894
8.764,-5.094,-7.133,4.897
8.573,-5.006,-7.661,4.989
6.647,-5.412,-6.822,4.995
1.763,-5.547,-6.969,4.996
-30.51,11.159,-4.908,4.998
17.598,-11.208,-16.082,5.0
2.13,-12.412,-1.188,5.089
4.365,-2.486,-9.881,5.091
-1.822,-2.811,-9.622,5.093
-2.689,-10.044,-5.889,5.099
-1.961,-10.376,-3.924,5.101
-0.911,-6.656,-5.111,5.19
0.295,-6.698,-7.169,5.191
0.413,-7.425,-6.841,5.193
0.18,-7.092,-6.475,5.202
0.026,-6.851,-6.983,5.203
-0.243,-7.363,-6.771,5.289
-0.167,-7.633,-6.667,5.291
-0.262,-7.635,-6.698,5.292
-0.392,-7.523,-6.31,5.294
-0.418,-7.573,-6.227,5.312
-0.392,-7.523,-6.31,5.389
-0.529,-7.428,-6.538,5.391
-0.357,-7.337,-6.429,5.392
-0.591,-7.364,-6.036,5.394
-0.72,-7.192,-5.975,5.399
-0.113,-6.261,-6.422,5.489
-0.157,-5.33,-5.961,5.49
-0.483,-5.352,-5.904,5.492
-1.457,-5.43,-5.361,5.495
-0.247,-4.071,-6.253,5.601
1.569,-4.114,-6.802,5.603
3.151,-3.49,-8.284,5.605
3.68,-2.396,-8.514,5.606
1.91,-2.702,-8.043,5.608
0.235,-2.308,-7.859,5.693
-0.721,-2.915,-8.185,5.695
-1.757,-2.007,-8.126,5.697
-0.341,-0.768,-6.766,5.698
-0.328,-0.954,-6.213,5.708
1.422,1.74,-7.521,5.789
1.473,4.806,-7.888,5.791
0.872,3.795,-6.91,5.792
-1.187,-0.358,-6.017,5.797
0.922,2.54,-6.521,5.799
2.26,5.32,-3.9,5.889
0.998,4.096,-6.156,5.891
0.931,2.462,-7.222,5.892
0.356,1.711,-6.111,5.894
-1.049,3.602,-8.422,5.896
0.055,10.452,-14.09,5.993
-0.779,10.11,-12.858,5.995
-0.104,7.462,-11.108,5.997
-2.692,8.976,-17.085,5.999
-6.778,17.419,-12.256,6.0
-5.763,34.11,-3.555,6.089
4.349,10.947,-8.073,6.091
5.478,-0.767,-13.716,6.096
-1.61,-0.331,-3.735,6.108
-4.406,4.882,2.359,6.11
0.002,7.406,2.147,6.189
-3.0,6.5,-3.7,6.191
-2.057,10.129,-7.014,6.193
-0.329,11.314,-10.957,6.194
1.076,8.927,-12.363,6.196
0.998,7.894,-8.447,6.289
1.096,7.688,-4.294,6.291
0.741,6.722,-2.561,6.292
0.818,6.755,-3.578,6.294
1.09,7.969,-4.935,6.296
1.308,8.524,-6.612,6.388
1.72,8.361,-7.531,6.39
1.663,7.69,-7.045,6.391
1.065,7.396,-5.998,6.393
0.471,7.614,-4.757,6.399
0.378,8.133,-4.216,6.489
0.529,8.486,-4.843,6.49
0.867,8.302,-5.551,6.504
1.457,8.271,-5.586,6.505
1.069,7.908,-5.804,6.507
0.898,7.494,-6.047,6.589
0.922,7.467,-6.184,6.591
1.153,7.759,-5.98,6.593
1.01,7.831,-6.165,6.594
0.853,7.559,-6.58,6.596
0.971,7.514,-6.257,6.689
0.937,7.91,-5.755,6.691
0.588,8.063,-5.482,6.692
0.755,7.965,-5.433,6.698
0.912,7.937,-5.618,6.7
0.829,7.886,-5.843,6.789
0.902,7.906,-6.053,6.791
0.598,7.594,-6.047,6.793
0.861,5.784,-6.892,6.794
0.406,7.418,-6.559,6.796
2.082,8.145,-5.522,6.889
0.061,7.884,-6.492,6.899
1.257,7.671,-5.286,6.906
-0.843,8.271,-5.486,6.908
0.406,7.818,-5.759,6.909
1.065,7.296,-6.198,6.997
2.004,7.412,-5.906,6.998
0.071,7.914,-6.057,7.0
0.037,7.91,-6.355,7.002
1.114,7.343,-6.271,7.004
-0.718,7.326,-7.106,7.104
-0.677,6.889,-6.709,7.106
-0.397,7.089,-6.669,7.108
-0.614,6.679,-7.099,7.19
-0.588,6.995,-6.855,7.192
-0.697,6.789,-7.069,7.194
-0.563,6.811,-7.111,7.195
-0.557,6.889,-7.049,7.197
-0.863,7.011,-7.011,7.199
-0.926,6.721,-7.121,7.289
-0.633,6.442,-7.282,7.299
-0.461,6.937,-6.957,7.301
-0.309,7.832,-6.492,7.304
-0.928,7.495,-6.975,7.307
-0.615,7.316,-6.776,7.39
1.053,6.958,-6.158,7.392
0.722,6.626,-6.186,7.394
0.175,7.284,-7.144,7.395
-1.534,8.179,-6.159,7.397
0.72,7.861,-5.931,7.491
1.286,7.557,-6.429,7.492
0.343,7.229,-6.314,7.494
0.371,8.114,-5.457,7.496
0.79,7.169,-6.735,7.499
1.052,7.095,-6.335,7.59
-0.277,7.589,-6.509,7.592
-0.984,7.147,-6.847,7.594
0.484,6.753,-6.653,7.596
0.043,6.989,-6.749,7.598
0.215,7.484,-6.424,7.693
-0.437,7.389,-6.889,7.695
-0.321,7.037,-6.937,7.697
-0.103,6.811,-6.831,7.698
-0.097,6.889,-6.769,7.7
0.094,7.121,-6.761,7.772
0.024,7.253,-6.433,7.775
-0.506,7.521,-6.561,7.782
0.177,7.011,-6.791,7.785
-0.072,6.305,-5.525,7.787
