vertical_Accel_x,vertical_Accel_y,vertical_Accel_z,accel_time_list
1.225,4.858,-8.423,0.0
1.08,4.0,-6.44,0.001
-0.468,6.247,-8.279,0.003
1.528,4.153,-9.301,0.005
1.359,4.568,-8.987,0.126
1.174,6.511,-6.784,0.128
0.839,3.868,-8.627,0.13
1.08,5.1,-8.44,0.131
1.154,5.311,-8.424,0.133
1.585,5.358,-7.903,0.224
1.122,5.063,-8.145,0.231
0.866,4.889,-8.436,0.232
1.085,4.858,-8.403,0.234
1.098,5.037,-8.315,0.235
0.988,4.953,-8.581,0.237
1.006,4.889,-8.456,0.327
1.013,4.979,-8.412,0.332
1.013,4.979,-8.412,0.334
1.013,4.979,-8.412,0.336
1.146,4.889,-8.476,0.348
1.006,4.889,-8.456,0.407
1.074,5.011,-8.484,0.408
1.019,5.068,-8.367,0.41
0.927,4.921,-8.508,0.412
1.013,4.979,-8.412,0.413
0.988,4.953,-8.581,0.521
1.043,4.895,-8.698,0.523
1.111,5.016,-8.726,0.525
1.025,4.958,-8.823,0.529
0.971,5.016,-8.706,0.624
1.014,5.311,-8.404,0.626
0.764,5.426,-8.151,0.627
1.044,5.426,-8.191,0.629
1.058,5.737,-8.595,0.63
0.705,5.858,-8.563,0.632
-0.329,6.545,-8.074,0.723
-0.334,6.705,-8.14,0.724
-0.549,6.714,-8.863,0.726
-0.0,7.4,-8.3,0.735
-2.553,7.23,-10.183,0.745
-0.815,7.709,-10.224,0.823
-2.009,8.476,-10.385,0.824
-2.049,9.714,-7.663,0.826
-1.888,10.508,-6.196,0.827
-0.539,11.794,-4.232,0.829
5.775,10.977,-1.486,0.923
6.214,9.341,-0.423,0.925
7.165,8.386,0.349,0.926
8.102,6.396,2.462,0.932
9.315,5.17,3.332,0.934
10.075,2.578,0.325,1.022
12.247,-0.729,0.853,1.024
12.953,-2.571,1.547,1.026
11.712,-3.682,1.488,1.027
8.532,-4.993,-4.841,1.122
5.679,-5.672,-3.773,1.125
3.384,-6.414,-2.209,1.126
3.084,-7.394,-1.349,1.136
5.484,-6.974,-2.789,1.138
7.182,-3.227,-5.373,1.222
7.595,-5.838,-3.882,1.224
7.775,-9.078,-1.282,1.226
7.411,-6.624,-1.336,1.227
7.425,-3.022,-2.518,1.233
7.572,-1.638,-4.816,1.324
3.627,0.833,-9.053,1.325
-10.647,28.267,-16.807,1.327
3.005,-0.076,-21.652,1.329
-5.019,-11.695,-8.89,1.33
4.319,-4.787,-4.357,1.423
6.245,-6.47,-4.134,1.429
1.268,-7.421,-4.304,1.431
1.436,-7.943,-4.309,1.432
8.162,-9.626,-2.485,1.434
11.005,-11.246,-4.848,1.523
8.425,-7.457,-3.787,1.524
8.763,-5.693,-6.118,1.534
3.386,-6.592,-7.707,1.536
-21.907,7.204,-16.753,1.538
13.893,-1.799,-13.112,1.623
2.184,-12.869,-9.871,1.624
4.1,-6.5,-9.4,1.626
1.433,-4.162,-7.958,1.628
-1.368,-5.847,-1.731,1.629
0.183,-9.305,-4.458,1.723
5.722,-6.67,-7.839,1.724
7.928,-6.745,-6.336,1.726
7.205,-10.146,-3.348,1.728
9.92,-8.912,-3.14,1.729
9.988,-6.95,-4.606,1.827
5.297,-6.013,-5.751,1.829
1.917,-4.395,-8.042,1.831
-22.301,7.229,-14.35,1.833
5.744,6.889,-14.528,1.834
2.932,-8.247,-13.331,1.947
8.379,-9.811,-10.464,1.956
0.181,-7.34,-2.818,1.958
-2.727,-6.825,-1.203,1.971
-0.216,-8.669,-3.271,1.972
5.265,-8.351,-7.517,2.049
7.875,-9.643,-4.213,2.05
8.288,-8.35,-2.806,2.052
9.968,-7.539,-4.166,2.053
5.453,-7.102,-5.223,2.055
-0.042,-4.948,-7.371,2.057
-19.687,1.871,-20.409,2.12
6.793,-0.769,-16.909,2.122
1.165,-9.209,-12.689,2.124
6.095,-5.202,-6.382,2.125
2.655,-7.282,-3.882,2.223
0.351,-5.316,0.764,2.224
4.156,-8.315,-4.455,2.23
7.335,-11.022,-4.282,2.232
7.116,-10.595,1.045,2.233
5.818,-9.953,-2.541,2.349
9.394,-6.125,-5.303,2.351
7.798,-6.442,-7.301,2.352
0.899,-5.771,-6.45,2.358
-6.325,-2.843,-10.713,2.36
-6.02,9.86,-13.8,2.423
12.002,-13.533,-18.473,2.424
4.528,-5.89,-4.024,2.426
-0.173,-7.775,-5.597,2.428
-0.971,-6.304,-2.351,2.429
3.679,-7.781,-6.036,2.522
6.43,-8.047,-5.789,2.524
6.138,-8.374,-3.015,2.526
6.881,-8.813,-2.243,2.527
7.56,-8.494,-2.779,2.529
3.653,-7.502,-5.023,2.623
-0.422,-5.93,-6.861,2.624
-15.173,-0.816,-14.686,2.626
2.669,10.032,-8.216,2.632
8.348,-7.727,-17.726,2.642
2.209,-7.764,-3.064,2.697
0.404,-6.765,-9.545,2.698
0.782,-6.382,-5.355,2.704
2.279,-7.581,-5.936,2.706
4.078,-7.13,-5.461,2.821
6.157,-7.818,-4.921,2.823
7.503,-8.487,-4.049,2.828
6.32,-8.012,-3.74,2.829
3.526,-6.586,-5.237,2.928
-0.499,-4.929,-8.05,2.93
-16.551,-0.056,-14.076,2.932
0.823,5.201,-8.488,2.933
7.411,-5.52,-14.545,2.935
4.289,-4.58,-7.155,2.936
-0.304,-7.536,-7.687,3.022
-0.317,-5.745,-6.749,3.031
3.006,-5.296,-8.019,3.033
4.587,-7.509,-5.862,3.035
6.04,-7.606,-4.621,3.046
8.294,-6.46,-6.821,3.125
7.945,-6.283,-6.451,3.126
6.287,-5.719,-6.743,3.128
2.474,-4.838,-7.785,3.13
-3.067,-4.29,-10.383,3.131
-13.104,5.764,-15.787,3.222
12.36,-9.394,-15.479,3.224
2.651,-5.366,-4.053,3.226
1.396,-5.536,-9.287,3.227
1.283,-5.945,-8.349,3.233
0.96,-4.011,-8.068,3.323
3.409,-6.387,-7.138,3.324
5.179,-5.532,-6.904,3.326
6.564,-6.704,-6.687,3.327
5.655,-6.417,-6.249,3.329
2.872,-6.591,-5.926,3.422
-2.077,-5.915,-7.455,3.424
-7.123,-4.585,-11.145,3.426
-9.44,11.289,-16.768,3.441
2.664,-8.504,-11.287,3.443
0.667,-5.31,-4.617,3.526
2.908,-4.833,-10.696,3.528
1.685,-4.963,-7.857,3.529
-0.011,-4.866,-7.602,3.531
1.432,-5.902,-6.694,3.533
4.767,-4.758,-8.04,3.624
7.555,-5.636,-7.434,3.626
6.652,-6.112,-6.178,3.628
5.786,-5.229,-6.657,3.629
3.241,-3.765,-8.291,3.631
-1.397,-5.087,-8.849,3.722
-19.523,13.499,-16.612,3.724
9.306,-10.275,-16.997,3.726
4.638,-1.836,-10.631,3.727
2.143,-4.282,-6.379,3.729
-2.385,-7.023,-4.645,3.825
1.111,-5.16,-7.932,3.826
4.491,-4.672,-9.274,3.836
4.547,-7.002,-6.04,3.837
6.257,-7.462,-4.372,3.839
7.7,-7.48,-6.36,3.922
7.72,-8.024,-5.968,3.924
6.44,-6.408,-5.956,3.926
3.74,-5.108,-7.356,3.927
-0.68,-2.504,-10.328,3.929
-15.862,9.726,-17.815,4.022
11.383,-10.245,-13.249,4.024
1.583,-5.745,-9.249,4.026
3.715,-5.123,-5.845,4.027
-1.455,-5.47,-5.434,4.031
0.458,-5.18,-6.804,4.122
2.294,-4.158,-9.244,4.124
5.379,-3.89,-7.102,4.126
7.388,-5.707,-6.253,4.127
7.755,-6.205,-6.808,4.129
6.03,-4.118,-7.804,4.222
6.066,-3.684,-7.821,4.25
3.189,-4.153,-8.913,4.251
-3.042,-1.86,-10.79,4.253
-14.049,12.963,-8.059,4.255
8.017,-9.955,-12.451,4.324
6.649,-5.434,-9.347,4.339
3.355,-4.73,-7.166,4.341
-2.049,-5.166,-5.053,4.343
-1.383,-5.695,-7.342,4.422
2.32,-4.812,-9.74,4.424
4.831,-5.932,-7.984,4.425
6.283,-7.776,-5.609,4.427
7.05,-8.515,-5.675,4.429
5.657,-6.818,-5.721,4.522
4.411,-6.52,-6.745,4.524
1.46,-5.706,-7.77,4.525
-15.983,0.276,-12.991,4.527
8.544,3.489,-7.828,4.529
3.56,-8.194,-11.879,4.626
5.221,-5.219,-7.464,4.636
2.313,-4.391,-7.538,4.638
-0.062,-5.974,-6.115,4.639
1.828,-6.215,-7.783,4.641
3.536,-4.596,-8.413,4.722
5.987,-6.119,-6.943,4.727
7.945,-6.883,-6.651,4.729
7.711,-5.934,-6.298,4.73
6.443,-4.514,-7.029,4.732
3.461,-5.435,-7.519,4.822
-5.315,-2.663,-10.357,4.824
-10.131,8.532,-10.816,4.825
4.617,-7.895,-17.442,4.827
1.768,-6.021,-8.004,4.829
1.793,-3.266,-6.879,4.927
-2.273,-6.061,-6.289,4.929
0.237,-4.07,-9.206,4.93
1.775,-2.823,-9.341,4.932
4.814,-3.176,-8.277,4.934
7.425,-4.819,-8.03,5.026
9.122,-6.495,-7.174,5.028
7.788,-5.278,-7.195,5.03
7.765,-4.209,-7.602,5.031
4.209,-3.998,-8.049,5.033
-5.381,-4.787,-9.157,5.097
-7.091,13.972,-8.326,5.1
6.085,-15.277,-7.955,5.102
7.162,-9.026,-12.085,5.108
5.496,-2.836,-8.887,5.11
-1.087,-3.891,-3.338,5.232
-1.417,-7.745,-4.949,5.235
1.932,-6.879,-9.296,5.237
4.768,-3.821,-8.604,5.246
4.338,-4.874,-7.015,5.323
2.906,-6.696,-7.319,5.324
2.428,-6.215,-7.583,5.326
2.013,-5.291,-7.838,5.328
1.798,-5.668,-7.794,5.329
1.628,-5.915,-7.783,5.342
1.37,-5.653,-7.711,5.422
1.247,-5.002,-7.74,5.424
1.345,-4.57,-7.434,5.425
1.109,-4.328,-6.526,5.431
1.253,-4.998,-5.66,5.432
2.986,-4.684,-7.022,5.521
4.049,-3.328,-7.842,5.523
3.361,-2.249,-8.143,5.525
3.094,-2.314,-7.669,5.526
3.394,-2.466,-9.63,5.528
4.229,-0.618,-10.225,5.621
4.082,-0.107,-9.928,5.623
3.089,-0.475,-9.347,5.625
3.253,0.022,-9.716,5.626
4.967,1.667,-9.233,5.628
6.753,-0.408,-7.145,5.721
7.331,0.118,-7.049,5.723
7.871,0.543,-7.214,5.725
7.835,0.441,-7.476,5.736
6.841,0.124,-7.365,5.738
6.416,-0.01,-7.406,5.821
6.498,0.039,-7.437,5.826
6.498,0.039,-7.437,5.828
6.318,0.051,-7.569,5.83
6.424,0.335,-7.159,5.831
5.964,-0.164,-7.791,5.922
6.709,-0.109,-7.827,5.924
6.453,-0.375,-7.435,5.925
5.871,-0.693,-7.19,5.927
5.781,-0.592,-7.231,5.929
6.001,-0.29,-7.214,6.021
5.937,-0.326,-6.923,6.022
5.563,-0.774,-6.477,6.024
5.322,-0.978,-6.211,6.026
5.783,-0.472,-6.46,6.126
6.207,0.071,-6.299,6.128
5.767,0.167,-5.833,6.13
5.964,0.236,-6.091,6.145
6.879,1.288,-7.203,6.147
8.977,0.292,-4.869,6.223
8.138,0.046,-5.085,6.225
8.538,-0.054,-5.785,6.227
9.277,0.192,-5.969,6.228
9.615,0.638,-5.754,6.23
8.331,0.677,-5.208,6.321
7.469,0.423,-5.092,6.323
7.208,0.569,-5.077,6.324
7.292,0.831,-4.823,6.329
8.105,1.99,-3.852,6.331
9.671,2.206,-2.471,6.425
9.0,2.3,-2.0,6.427
8.073,2.292,-2.173,6.429
8.455,2.016,-1.955,6.431
9.622,2.649,-1.822,6.437
9.359,2.788,-1.459,6.521
8.755,2.716,-1.455,6.523
8.363,2.761,-2.363,6.532
8.978,3.551,-2.578,6.534
8.247,4.271,-2.447,6.545
7.328,5.625,0.231,6.621
7.694,5.81,0.277,6.623
7.666,5.885,0.846,6.624
6.875,6.12,0.53,6.627
6.626,6.561,0.09,6.628
8.426,7.761,0.09,6.722
8.57,7.912,0.728,6.724
7.123,7.416,0.529,6.726
7.0,7.2,0.2,6.732
6.886,7.238,0.734,6.734
6.459,8.046,1.095,6.821
5.353,7.615,-0.202,6.822
6.915,8.132,-0.58,6.825
6.765,11.686,-0.051,6.828
6.826,10.113,-1.972,6.83
3.833,8.969,-3.725,6.921
2.267,8.361,-4.157,6.931
0.467,8.62,-4.522,6.933
0.333,8.616,-5.237,6.934
0.467,8.867,-5.333,6.936
0.896,8.698,-5.535,7.021
2.296,8.698,-4.835,7.023
2.757,8.729,-4.914,7.028
2.518,8.459,-4.894,7.029
2.441,7.52,-5.453,7.031
2.541,7.52,-5.753,7.121
2.388,7.994,-5.704,7.123
2.12,7.91,-5.527,7.124
2.298,7.349,-5.467,7.126
1.98,7.49,-5.373,7.128
0.635,7.723,-5.887,7.221
0.726,7.971,-5.745,7.223
0.899,8.172,-5.573,7.224
1.326,8.471,-5.945,7.226
1.587,8.065,-4.977,7.228
1.391,7.376,-6.185,7.322
0.818,7.275,-7.757,7.328
1.277,7.313,-6.635,7.329
0.806,7.468,-5.761,7.332
0.485,7.309,-6.124,7.333
0.371,7.245,-6.574,7.421
0.209,7.824,-6.215,7.423
0.547,7.93,-5.983,7.424
0.563,6.749,-6.886,7.431
0.688,6.892,-7.004,7.432
0.688,6.892,-7.004,7.521
0.701,7.028,-6.827,7.523
0.792,7.304,-6.312,7.53
0.863,7.549,-6.786,7.531
1.312,7.508,-5.096,7.533
0.688,8.292,-4.804,7.621
0.241,7.662,-7.222,7.623
0.503,6.984,-7.681,7.626
0.935,6.723,-7.287,7.632
0.825,6.743,-6.618,7.721
0.572,7.073,-6.401,7.722
0.337,7.351,-6.314,7.724
0.396,7.488,-6.592,7.726
0.691,7.376,-6.585,7.727
0.81,7.252,-6.442,7.821
0.862,7.122,-6.459,7.823
0.754,6.898,-6.844,7.824
0.671,6.945,-6.874,7.832
0.648,7.158,-6.81,7.833
0.661,7.294,-6.632,7.922
0.637,7.051,-6.614,7.924
0.576,6.885,-6.709,7.926
0.584,7.181,-6.597,7.928
0.631,7.211,-6.68,7.93
0.588,6.992,-6.904,8.021
0.635,7.023,-6.987,8.023
0.678,7.241,-6.762,8.025
0.571,7.045,-6.774,8.026
0.463,6.849,-6.786,8.037
0.524,7.015,-6.691,8.126
0.578,7.341,-6.662,8.128
0.933,6.967,-6.233,8.129
0.287,7.265,-6.977,8.131
0.53,7.283,-6.953,8.133
1.145,6.874,-6.629,8.225
1.431,7.111,-6.38,8.227
-0.205,6.96,-6.766,8.229
0.211,7.18,-6.569,8.235
0.767,7.033,-6.667,8.237
1.104,7.112,-6.808,8.322
0.375,7.057,-6.882,8.323
0.424,7.115,-6.591,8.325
-0.028,6.973,-6.901,8.327
0.311,7.08,-6.669,8.328
0.466,7.305,-6.74,8.422
0.223,7.287,-6.765,8.425
-0.268,7.439,-6.506,8.427
0.369,6.789,-6.62,8.436
0.081,7.197,-6.516,8.438
-0.211,7.12,-6.831,8.52
0.385,6.709,-7.124,8.532
-0.198,7.256,-6.654,8.534
-0.245,7.226,-6.571,8.536
-0.032,7.161,-6.594,8.539
-0.275,7.143,-6.618,8.621
-0.12,7.369,-6.689,8.623
-0.258,7.09,-6.748,8.624
-0.458,7.29,-6.548,8.626
-0.328,7.273,-6.601,8.628
-0.292,8.124,-5.212,8.721
-0.386,8.443,-5.071,8.723
-0.278,8.367,-5.184,8.724
-0.292,8.324,-4.812,8.726
-0.557,8.229,-4.914,8.728
-0.243,8.171,-5.286,8.823
-0.48,8.561,-5.331,8.826
-0.602,8.394,-5.247,8.836
-0.592,8.224,-5.212,8.848
-0.567,8.398,-4.949,8.85
0.727,8.272,-5.167,8.921
0.56,8.302,-5.313,8.923
0.867,8.17,-5.554,8.924
0.647,8.066,-5.529,8.929
0.369,8.089,-5.481,8.931
0.266,8.16,-5.691,9.021
-0.242,8.083,-6.086,9.028
0.817,8.465,-5.573,9.029
0.944,8.637,-5.34,9.033
0.96,8.802,-4.913,9.035
1.155,6.863,-6.79,9.121
0.998,5.835,-7.404,9.122
0.955,7.763,-6.39,9.124
1.62,7.553,-6.159,9.126
4.516,5.222,-5.667,9.127
6.596,11.288,-2.392,9.221
-4.392,4.496,-9.088,9.23
0.319,4.903,-8.784,9.232
1.913,8.735,-3.823,9.234
-1.615,7.309,-7.324,9.243
1.308,4.496,-8.488,9.323
2.178,6.441,-7.162,9.325
0.758,6.01,-8.252,9.327
1.11,6.952,-6.742,9.328
1.267,5.353,-6.973,9.428
-1.044,6.004,-7.698,9.429
-0.2,5.24,-8.18,9.431
-0.211,5.571,-8.164,9.433
-1.322,6.102,-8.049,9.435
-0.433,5.913,-7.893,9.521
0.1,5.74,-7.68,9.523
-1.2,5.28,-8.46,9.525
0.056,6.124,-7.538,9.526
-0.322,6.062,-7.769,9.528
-0.767,5.787,-8.007,9.596
-0.667,5.527,-8.187,9.614
-1.022,5.442,-7.929,9.615
-0.744,5.544,-7.978,9.617
-0.456,5.416,-8.242,9.619
-1.272,6.505,-7.625,9.72
-1.08,6.6,-7.44,9.722
-1.265,7.084,-7.064,9.724
-0.539,7.763,-6.543,9.727
-0.067,6.727,-7.587,9.832
-0.478,6.618,-7.491,9.834
-1.2,6.04,-7.28,9.835
-2.267,8.007,-5.547,9.837
1.767,3.793,-10.053,9.839
-1.092,8.396,-6.388,9.841
-0.487,8.735,-6.523,9.925
-0.906,6.932,-7.539,9.927
2.612,5.108,-6.796,9.929
0.725,5.743,-6.918,9.93
-0.692,6.896,-7.188,9.932
0.365,7.377,-7.013,10.021
0.627,6.699,-7.472,10.023
-0.067,6.567,-7.433,10.025
0.117,6.447,-7.13,10.028
0.443,6.418,-7.075,10.03
0.325,6.543,-7.218,10.122
0.124,6.715,-7.391,10.13
0.508,6.396,-7.288,10.132
-0.001,6.572,-7.273,10.133
-0.137,6.749,-7.286,10.135
0.62,6.431,-7.211,10.206
0.054,6.898,-7.244,10.208
0.643,5.018,-5.175,10.214
-1.166,8.895,-8.06,10.216
0.725,6.543,-8.318,10.217
