vertical_Accel_x,vertical_Accel_y,vertical_Accel_z,accel_time_list
0.671,6.316,-7.377,0.0
0.87,6.42,-7.925,0.001
1.27,6.52,-7.925,0.003
0.901,6.396,-7.553,0.004
0.591,5.634,-6.878,0.128
2.14,6.841,-7.949,0.129
1.229,5.984,-7.823,0.131
0.77,6.02,-7.325,0.133
0.849,6.202,-7.024,0.23
1.014,6.344,-7.485,0.231
0.783,6.069,-7.457,0.237
0.622,5.914,-7.454,0.239
0.588,6.147,-7.22,0.326
0.419,6.323,-7.248,0.328
1.14,6.341,-7.549,0.333
0.935,5.158,-9.439,0.335
-0.153,6.511,-5.118,0.426
-0.083,5.931,-7.743,0.428
-0.368,5.571,-8.281,0.429
0.324,5.505,-7.859,0.431
-0.293,5.947,-7.833,0.527
-0.742,6.138,-5.989,0.529
-0.287,6.493,-5.167,0.53
0.047,6.327,-5.133,0.532
-1.892,6.545,-3.092,0.627
-1.647,6.929,-2.047,0.628
-1.302,7.314,-1.102,0.63
-1.314,6.796,0.086,0.632
-1.79,6.216,3.484,0.731
-0.88,6.931,5.069,0.733
0.622,7.575,4.925,0.734
0.19,8.184,4.816,0.745
-0.233,8.813,3.693,0.826
-0.011,8.678,4.578,0.828
1.411,8.182,5.942,0.829
1.478,7.736,7.316,0.831
3.784,5.378,8.055,0.926
4.194,4.729,7.771,0.928
4.639,3.504,7.763,0.934
4.731,3.043,8.49,0.936
7.903,0.966,7.229,1.026
7.772,-0.502,7.324,1.028
8.593,-1.987,7.933,1.029
9.074,-2.091,8.343,1.031
8.564,-4.748,4.88,1.126
8.208,-5.056,4.66,1.128
7.82,-5.24,4.5,1.138
7.188,-4.916,4.66,1.147
6.256,-3.492,6.22,1.229
6.46,-4.22,7.0,1.23
5.924,-5.268,7.38,1.232
6.067,-5.763,8.249,1.234
5.035,-7.005,7.354,1.328
4.536,-6.191,7.764,1.33
3.946,-5.549,8.065,1.332
3.589,-5.656,7.889,1.334
3.311,-5.721,9.209,1.428
2.862,-5.823,8.989,1.429
1.855,-6.211,8.904,1.431
1.804,-6.709,9.423,1.432
3.643,-3.886,8.429,1.553
1.914,-3.429,9.243,1.562
2.356,-3.419,8.935,1.57
2.749,-4.157,8.046,1.571
3.511,-3.743,8.634,1.629
3.11,-4.152,8.662,1.631
2.97,-4.848,8.278,1.632
3.126,-4.971,7.977,1.634
2.361,-4.895,8.116,1.725
2.288,-5.262,8.13,1.727
2.37,-5.352,8.342,1.729
2.431,-5.243,8.694,1.731
3.137,-2.004,10.348,1.832
1.778,-1.478,9.711,1.833
1.293,-1.459,9.27,1.835
1.681,-1.848,8.826,1.837
2.267,-1.967,8.767,1.935
2.419,-2.452,8.874,1.937
2.756,-2.956,8.822,1.945
2.781,-3.048,8.926,1.947
2.441,-2.774,9.063,2.027
2.415,-2.781,9.159,2.028
2.496,-2.73,9.185,2.037
2.607,-2.541,9.23,2.039
1.506,-1.889,9.543,2.127
1.611,-2.077,9.486,2.133
1.795,-2.076,9.648,2.135
1.719,-1.895,9.61,2.137
1.611,-2.077,9.486,2.231
1.67,-2.028,9.605,2.233
1.749,-1.903,9.514,2.235
1.623,-1.854,9.471,2.236
1.565,-1.904,9.352,2.327
1.729,-2.043,9.414,2.329
1.729,-2.043,9.414,2.331
1.661,-1.945,9.49,2.332
1.593,-1.847,9.567,2.431
1.506,-1.889,9.543,2.432
1.661,-1.945,9.49,2.434
1.699,-2.035,9.51,2.438
1.535,-1.896,9.448,2.527
1.573,-1.987,9.467,2.529
1.631,-1.937,9.586,2.531
1.661,-1.945,9.49,2.532
1.631,-1.937,9.586,2.627
1.661,-1.945,9.49,2.629
1.661,-1.945,9.49,2.631
1.661,-1.945,9.49,2.64
1.623,-1.854,9.471,2.727
1.623,-1.854,9.471,2.729
1.661,-1.945,9.49,2.731
1.749,-1.903,9.514,2.732
1.631,-1.937,9.586,2.827
1.631,-1.937,9.586,2.829
1.699,-2.035,9.51,2.83
1.67,-2.028,9.605,2.832
1.661,-1.945,9.49,2.926
1.661,-1.945,9.49,2.928
1.69,-1.952,9.395,2.93
1.661,-1.945,9.49,3.026
1.593,-1.847,9.567,3.029
1.593,-1.847,9.567,3.031
1.535,-1.896,9.448,3.04
1.535,-1.896,9.448,3.125
1.623,-1.854,9.471,3.129
1.623,-1.854,9.471,3.13
1.623,-1.854,9.471,3.132
1.623,-1.854,9.471,3.225
1.623,-1.854,9.471,3.229
1.749,-1.903,9.514,3.235
1.661,-1.945,9.49,3.237
1.661,-1.945,9.49,3.325
1.623,-1.854,9.471,3.329
1.585,-1.764,9.452,3.33
1.585,-1.764,9.452,3.332
1.585,-1.764,9.452,3.425
1.555,-1.756,9.548,3.429
1.643,-1.714,9.571,3.443
1.468,-1.798,9.524,3.445
1.555,-1.756,9.548,3.525
1.71,-1.812,9.495,3.532
1.643,-1.714,9.571,3.534
1.643,-1.714,9.571,3.535
1.585,-1.764,9.452,3.625
1.778,-1.91,9.419,3.629
1.661,-1.945,9.49,3.63
1.631,-1.937,9.586,3.635
1.623,-1.854,9.471,3.725
1.623,-1.854,9.471,3.728
1.623,-1.854,9.471,3.73
1.585,-1.764,9.452,3.732
1.517,-1.666,9.529,3.825
1.555,-1.756,9.548,3.836
1.643,-1.714,9.571,3.838
1.605,-1.624,9.552,3.84
1.575,-1.616,9.648,3.925
1.517,-1.666,9.529,3.928
1.643,-1.714,9.571,3.93
1.585,-1.764,9.452,3.938
1.672,-1.722,9.476,4.025
1.643,-1.714,9.571,4.029
1.643,-1.714,9.571,4.03
1.555,-1.756,9.548,4.032
1.585,-1.764,9.452,4.125
1.555,-1.756,9.548,4.129
1.517,-1.666,9.529,4.13
1.517,-1.666,9.529,4.136
1.605,-1.624,9.552,4.225
1.537,-1.526,9.629,4.236
1.692,-1.582,9.576,4.246
1.567,-1.533,9.533,4.248
1.605,-1.624,9.552,4.325
1.643,-1.714,9.571,4.328
1.692,-1.582,9.576,4.33
1.605,-1.624,9.552,4.335
1.605,-1.624,9.552,4.425
1.605,-1.624,9.552,4.436
1.567,-1.533,9.533,4.438
1.567,-1.533,9.533,4.44
1.654,-1.491,9.557,4.524
1.654,-1.491,9.557,4.528
1.625,-1.484,9.652,4.53
1.587,-1.393,9.633,4.625
1.587,-1.393,9.633,4.642
1.587,-1.393,9.633,4.645
1.587,-1.393,9.633,4.647
1.549,-1.303,9.614,4.728
1.549,-1.303,9.614,4.73
1.549,-1.303,9.614,4.733
1.578,-1.31,9.519,4.735
1.636,-1.261,9.638,4.825
1.51,-1.212,9.595,4.827
1.636,-1.261,9.638,4.83
1.636,-1.261,9.638,4.832
1.51,-1.212,9.595,4.93
1.481,-1.205,9.69,4.932
1.598,-1.17,9.619,4.935
1.598,-1.17,9.619,4.937
1.598,-1.17,9.619,5.029
1.53,-1.072,9.695,5.03
1.492,-0.982,9.676,5.034
1.492,-0.982,9.676,5.035
1.492,-0.982,9.676,5.125
1.492,-0.982,9.676,5.127
1.454,-0.891,9.657,5.134
1.416,-0.801,9.638,5.136
1.504,-0.759,9.662,5.225
1.542,-0.85,9.681,5.227
1.504,-0.759,9.662,5.235
1.504,-0.759,9.662,5.237
1.504,-0.759,9.662,5.324
1.504,-0.759,9.662,5.326
1.466,-0.669,9.643,5.329
1.466,-0.669,9.643,5.347
1.466,-0.669,9.643,5.425
1.553,-0.627,9.667,5.427
1.553,-0.627,9.667,5.431
1.36,-0.48,9.7,5.436
0.985,0.462,9.746,5.525
0.985,0.462,9.746,5.532
0.985,0.462,9.746,5.535
1.023,0.608,9.831,5.537
1.054,0.585,9.738,5.629
1.054,0.585,9.738,5.631
1.077,0.492,9.769,5.634
1.108,0.469,9.677,5.636
1.108,0.469,9.677,5.725
1.054,0.585,9.738,5.726
1.054,0.585,9.738,5.738
1.023,0.608,9.831,5.739
1.023,0.608,9.831,5.825
1.054,0.585,9.738,5.83
1.062,0.654,9.615,5.833
1.062,0.654,9.615,5.835
1.154,0.685,9.638,5.928
1.123,0.708,9.731,5.93
1.123,0.708,9.731,5.934
1.146,0.615,9.762,5.935
1.2,0.5,9.7,6.025
1.108,0.469,9.677,6.026
1.108,0.469,9.677,6.03
1.054,0.585,9.738,6.031
1.054,0.585,9.738,6.124
1.054,0.585,9.738,6.126
0.931,0.577,9.808,6.138
0.962,0.554,9.715,6.14
0.908,0.669,9.777,6.224
0.885,0.762,9.746,6.225
0.885,0.762,9.746,6.229
0.885,0.762,9.746,6.325
0.908,0.669,9.777,6.326
0.908,0.669,9.777,6.328
0.854,0.785,9.838,6.331
0.885,0.762,9.746,6.425
0.862,0.854,9.715,6.426
0.862,0.854,9.715,6.428
0.931,0.977,9.708,6.431
0.962,0.554,9.715,6.525
0.923,1.208,9.431,6.526
0.8,0.9,9.9,6.536
0.946,0.815,9.862,6.539
0.946,0.815,9.862,6.625
1.154,0.685,9.638,6.626
1.054,0.985,9.638,6.632
1.146,1.015,9.662,6.635
1.054,0.985,9.638,6.729
1.054,0.985,9.638,6.731
1.023,1.008,9.731,6.732
1.015,0.938,9.854,6.736
0.992,1.031,9.823,6.825
0.992,1.031,9.823,6.826
0.915,1.238,9.854,6.828
0.923,1.308,9.731,6.831
0.954,1.285,9.638,6.925
0.923,1.308,9.731,6.938
0.9,1.4,9.7,6.945
0.854,1.185,9.738,6.948
0.946,1.215,9.762,7.024
0.946,1.215,9.762,7.025
0.869,1.423,9.792,7.027
0.823,1.608,9.731,7.03
0.723,1.508,9.831,7.126
0.677,1.292,9.869,7.128
0.754,1.085,9.838,7.13
0.892,1.831,10.023,7.133
0.823,2.008,9.631,7.225
0.915,1.138,9.554,7.227
0.823,1.608,9.731,7.229
0.854,1.585,9.638,7.236
1.01,2.738,9.308,7.328
0.989,2.686,9.437,7.33
1.157,2.671,9.614,7.332
1.224,2.405,9.981,7.335
-0.353,2.617,10.191,7.424
-0.126,2.536,10.232,7.431
0.098,2.545,10.228,7.432
-0.004,2.789,10.055,7.436
-0.296,2.211,10.045,7.536
-0.255,2.262,9.919,7.537
-0.045,2.438,9.581,7.553
-0.343,2.994,9.153,7.556
-0.368,4.191,8.495,7.624
-0.321,4.561,8.523,7.63
-0.288,4.884,8.846,7.632
-0.71,5.18,9.211,7.644
-2.389,6.087,8.109,7.724
-1.315,6.384,7.555,7.726
-0.845,6.736,6.145,7.731
-2.722,3.825,6.382,7.734
-6.129,-0.117,5.889,7.824
-8.223,-2.299,6.163,7.825
-12.902,-5.973,3.742,7.827
-4.694,-2.422,7.143,7.924
-3.998,0.665,3.627,7.926
-1.679,-2.801,-3.044,7.928
2.589,-2.089,-10.956,7.934
3.67,4.941,-2.534,8.028
-0.169,7.761,-6.412,8.03
-3.45,8.201,-5.823,8.032
-11.97,0.159,3.234,8.033
-1.204,62.845,10.425,8.124
-22.273,-1.491,46.909,8.126
26.555,-19.682,6.118,8.133
1.494,4.668,-0.273,8.134
11.716,23.033,-4.122,8.224
8.384,-19.033,-1.278,8.226
-7.012,2.276,1.192,8.228
0.188,-0.924,-0.008,8.229
2.4,0.6,-3.9,8.324
-0.326,0.348,0.991,8.326
-0.191,-1.083,4.07,8.327
2.939,-0.822,1.013,8.329
0.762,1.815,0.326,8.399
-2.636,1.209,1.857,8.4
-3.955,2.366,6.57,8.402
0.774,5.777,1.217,8.412
-4.233,24.933,25.367,8.522
0.58,28.354,15.862,8.523
-3.835,9.873,11.178,8.544
9.729,-3.734,1.013,8.546
5.377,20.515,7.052,8.627
-6.195,16.501,8.121,8.633
3.959,5.192,5.814,8.635
1.368,3.494,6.955,8.636
0.341,6.635,8.876,8.724
2.343,5.871,9.014,8.729
1.076,6.459,6.535,8.731
0.376,5.959,3.435,8.733
-0.518,3.613,2.347,8.824
-0.9,4.04,3.22,8.831
-1.764,5.135,5.285,8.841
-2.609,7.756,7.024,8.843
-2.72,8.633,11.712,8.924
-1.786,7.257,11.271,8.925
-0.139,6.002,8.063,8.927
2.339,3.098,5.637,8.928
6.117,6.847,5.091,9.028
3.951,12.94,5.774,9.03
0.677,14.211,7.162,9.031
1.145,10.798,7.528,9.033
0.611,7.604,5.645,9.124
0.962,6.045,6.719,9.125
1.736,4.874,7.932,9.127
0.334,4.394,8.083,9.129
0.759,5.965,6.724,9.224
0.42,6.267,6.788,9.234
0.327,6.478,6.704,9.241
0.482,6.169,6.951,9.242
1.745,6.108,7.053,9.323
2.218,6.231,6.949,9.325
2.667,5.912,7.08,9.328
3.022,6.604,6.627,9.331
1.138,8.055,6.881,9.423
0.877,8.511,6.762,9.424
0.6,8.3,6.9,9.426
0.485,7.634,6.957,9.428
0.581,6.472,7.26,9.536
0.332,6.213,7.234,9.538
0.091,6.177,7.204,9.54
-0.087,6.185,7.294,9.542
1.539,6.458,7.024,9.635
1.586,6.41,7.099,9.642
1.751,6.435,7.146,9.644
1.781,6.657,7.134,9.645
2.565,6.676,6.841,9.726
2.616,6.694,6.71,9.727
2.535,6.724,6.759,9.729
2.52,6.967,6.788,9.731
0.214,6.985,6.956,9.825
0.11,6.874,7.039,9.827
0.167,6.767,6.967,9.829
0.132,6.681,6.929,9.83
1.886,6.843,6.829,9.926
1.984,7.006,6.89,9.929
2.047,6.845,6.892,9.933
2.241,6.735,6.876,9.935
2.453,6.755,6.808,10.025
2.453,6.755,6.808,10.027
2.322,6.704,6.827,10.029
2.271,6.686,6.957,10.03
2.192,6.653,6.845,10.125
2.143,6.571,6.814,10.127
1.982,6.569,6.751,10.129
2.031,6.651,6.782,10.136
1.867,6.712,6.88,10.23
2.047,6.845,6.892,10.232
2.129,6.814,6.843,10.233
2.241,6.735,6.876,10.235
2.42,6.867,6.888,10.325
2.259,6.865,6.824,10.327
2.241,6.735,6.876,10.328
2.32,6.767,6.988,10.343
2.143,6.571,6.814,10.425
2.112,6.62,6.733,10.427
2.08,6.733,6.812,10.429
2.031,6.651,6.782,10.43
0.223,6.806,7.09,10.525
0.314,6.785,7.056,10.529
0.348,6.871,7.094,10.532
0.383,6.957,7.131,10.534
0.474,6.935,7.097,10.625
0.474,6.935,7.097,10.627
0.553,6.782,7.111,10.629
0.587,6.868,7.148,10.63
0.427,6.717,7.108,10.725
0.28,6.699,7.018,10.727
0.405,6.763,7.022,10.736
0.314,6.785,7.056,10.738
0.348,6.871,7.094,10.825
0.44,6.849,7.059,10.827
0.461,6.803,7.145,10.829
0.587,6.868,7.148,10.83
0.587,6.868,7.148,10.925
0.461,6.803,7.145,10.927
0.566,6.914,7.062,10.929
0.553,6.782,7.111,10.93
0.531,6.828,7.025,11.025
0.44,6.849,7.059,11.031
0.461,6.803,7.145,11.033
0.44,6.849,7.059,11.035
0.553,6.782,7.111,11.128
0.553,6.782,7.111,11.143
0.587,6.868,7.148,11.144
0.587,6.868,7.148,11.223
0.553,6.782,7.111,11.227
0.644,6.76,7.076,11.228
0.644,6.76,7.076,11.23
0.274,6.53,7.313,11.323
0.185,6.534,7.357,11.327
0.185,6.534,7.357,11.328
0.209,6.623,7.396,11.33
0.531,6.828,7.025,11.423
0.644,6.76,7.076,11.427
0.553,6.782,7.111,11.428
0.566,6.914,7.062,11.43
0.17,6.668,7.315,11.523
0.313,6.485,7.394,11.534
0.313,6.485,7.394,11.542
0.274,6.53,7.313,11.543
0.185,6.534,7.357,11.623
0.26,6.664,7.27,11.626
0.274,6.53,7.313,11.628
0.236,6.574,7.232,11.63
0.566,6.914,7.062,11.723
0.566,6.914,7.062,11.731
0.274,6.53,7.313,11.734
0.274,6.53,7.313,11.737
0.274,6.53,7.313,11.824
0.298,6.619,7.351,11.827
0.298,6.619,7.351,11.83
0.185,6.534,7.357,11.832
0.209,6.623,7.396,11.922
0.185,6.534,7.357,11.933
0.185,6.534,7.357,11.935
0.147,6.579,7.277,11.937
0.566,6.914,7.062,12.023
0.553,6.782,7.111,12.026
0.553,6.782,7.111,12.028
0.531,6.828,7.025,12.035
0.531,6.828,7.025,12.123
0.553,6.782,7.111,12.126
0.44,6.849,7.059,12.128
0.44,6.849,7.059,12.134
0.587,6.868,7.148,12.223
0.553,6.782,7.111,12.23
0.587,6.868,7.148,12.232
0.461,6.803,7.145,12.234
0.461,6.803,7.145,12.323
0.44,6.849,7.059,12.326
0.461,6.803,7.145,12.328
0.405,6.763,7.022,12.335
0.427,6.717,7.108,12.427
0.348,6.871,7.094,12.43
0.44,6.849,7.059,12.432
0.461,6.803,7.145,12.433
0.461,6.803,7.145,12.523
0.44,6.849,7.059,12.527
0.44,6.849,7.059,12.528
0.44,6.849,7.059,12.53
0.461,6.803,7.145,12.623
0.314,6.785,7.056,12.63
0.348,6.871,7.094,12.632
0.44,6.849,7.059,12.642
0.44,6.849,7.059,12.723
0.348,6.871,7.094,12.726
0.461,6.803,7.145,12.728
0.461,6.803,7.145,12.73
0.461,6.803,7.145,12.822
0.427,6.717,7.108,12.826
0.461,6.803,7.145,12.827
0.348,6.871,7.094,12.927
0.44,6.849,7.059,12.929
0.553,6.782,7.111,12.932
0.461,6.803,7.145,12.934
0.461,6.803,7.145,13.023
0.348,6.871,7.094,13.025
0.461,6.803,7.145,13.028
0.518,6.696,7.073,13.038
0.531,6.828,7.025,13.123
0.44,6.849,7.059,13.125
0.44,6.849,7.059,13.128
0.461,6.803,7.145,13.13
0.553,6.782,7.111,13.224
0.553,6.782,7.111,13.225
0.461,6.803,7.145,13.229
0.461,6.803,7.145,13.233
0.461,6.803,7.145,13.323
0.461,6.803,7.145,13.325
0.553,6.782,7.111,13.334
0.461,6.803,7.145,13.335
0.461,6.803,7.145,13.423
0.553,6.782,7.111,13.425
0.461,6.803,7.145,13.443
0.518,6.696,7.073,13.446
0.553,6.782,7.111,13.523
0.553,6.782,7.111,13.525
0.185,6.534,7.357,13.531
0.185,6.534,7.357,13.533
0.185,6.534,7.357,13.623
0.17,6.668,7.315,13.624
0.185,6.534,7.357,13.628
0.223,6.489,7.438,13.629
0.223,6.489,7.438,13.723
0.185,6.534,7.357,13.729
0.185,6.534,7.357,13.732
0.185,6.534,7.357,13.734
0.185,6.534,7.357,13.823
0.185,6.534,7.357,13.825
0.147,6.579,7.277,13.836
0.147,6.579,7.277,13.838
0.185,6.534,7.357,13.923
0.274,6.53,7.313,13.924
0.298,6.619,7.351,13.928
0.185,6.534,7.357,13.929
0.185,6.534,7.357,14.023
0.274,6.53,7.313,14.025
0.274,6.53,7.313,14.028
0.313,6.485,7.394,14.04
0.274,6.53,7.313,14.123
0.274,6.53,7.313,14.124
0.298,6.619,7.351,14.128
0.274,6.53,7.313,14.129
0.185,6.534,7.357,14.223
0.185,6.534,7.357,14.232
0.313,6.485,7.394,14.236
0.274,6.53,7.313,14.237
0.274,6.53,7.313,14.323
0.274,6.53,7.313,14.325
0.209,6.623,7.396,14.328
0.298,6.619,7.351,14.329
0.274,6.53,7.313,14.422
0.298,6.619,7.351,14.424
0.185,6.534,7.357,14.431
0.185,6.534,7.357,14.523
0.298,6.619,7.351,14.524
0.298,6.619,7.351,14.526
0.209,6.623,7.396,14.529
0.321,6.709,7.389,14.623
0.298,6.619,7.351,14.632
0.215,6.266,7.443,14.634
0.272,6.749,7.064,14.645
0.613,7.132,7.052,14.723
0.734,6.886,7.238,14.724
0.504,6.711,7.317,14.726
0.48,7.099,6.718,14.733
0.497,6.742,6.987,14.827
0.544,6.96,6.976,14.829
0.396,7.089,7.083,14.83
0.378,7.446,6.814,14.834
0.112,7.48,7.247,14.923
0.096,7.689,6.783,14.924
-0.185,7.638,6.36,14.926
-0.655,8.513,7.181,14.934
-0.094,9.383,6.934,15.023
-0.543,9.247,8.006,15.024
-0.738,9.502,7.696,15.026
-1.794,13.083,2.934,15.035
1.449,12.667,1.796,15.123
1.604,11.933,2.016,15.125
1.088,11.5,2.253,15.13
0.073,9.467,2.19,15.133
1.108,8.196,-1.631,15.222
-0.761,4.931,-3.92,15.224
-0.445,3.622,-5.982,15.226
-2.041,5.02,-6.847,15.229
2.262,2.873,-8.667,15.322
2.296,2.255,-8.925,15.323
1.985,2.718,-8.102,15.329
2.287,1.391,-8.989,15.344
2.433,-0.21,-9.485,15.422
1.801,0.015,-9.072,15.424
1.97,0.354,-8.732,15.426
2.233,1.19,-8.785,15.429
1.718,1.167,-8.301,15.522
2.087,0.107,-8.66,15.524
1.817,0.052,-9.529,15.525
2.1,-0.1,-9.4,15.533
2.131,-0.34,-9.441,15.622
0.457,0.061,-8.392,15.624
-0.147,0.102,-8.103,15.625
2.051,0.472,-9.858,15.631
1.518,0.167,-9.201,15.722
1.275,0.529,-9.793,15.724
1.543,0.039,-9.408,15.729
2.156,1.047,-9.72,15.741
3.614,-0.607,-8.785,15.822
3.472,-0.198,-9.404,15.827
3.526,-0.84,-8.919,15.829
3.102,0.026,-9.251,15.832
4.125,-1.053,-8.794,15.922
4.494,-0.69,-9.22,15.924
4.633,-0.738,-10.125,15.925
3.427,0.472,-9.645,15.928
2.591,0.511,-9.021,16.026
2.743,0.647,-9.394,16.027
1.843,1.047,-7.894,16.029
2.868,-0.285,-9.63,16.122
1.919,1.051,-9.902,16.128
2.234,0.357,-9.115,16.129
2.909,0.189,-9.279,16.139
2.519,0.751,-11.702,16.222
2.515,-0.594,-9.913,16.228
0.751,0.736,-8.772,16.232
0.166,1.943,-8.085,16.234
2.962,0.398,-9.396,16.322
2.966,0.243,-9.585,16.324
2.483,1.221,-9.343,16.329
3.885,-0.106,-10.387,16.33
2.458,2.325,-9.803,16.422
2.521,1.647,-10.268,16.423
1.574,2.036,-9.329,16.426
1.463,1.742,-9.905,16.427
1.874,0.732,-10.064,16.522
1.683,0.921,-9.643,16.523
2.023,0.496,-9.391,16.533
1.934,0.657,-9.315,16.535
3.525,-0.453,-9.294,16.649
2.935,-0.212,-9.176,16.651
2.943,-0.196,-9.507,16.653
3.173,-0.172,-8.655,16.654
3.674,2.137,-9.571,16.739
3.274,1.437,-8.671,16.741
3.997,0.949,-8.986,16.743
3.735,0.568,-8.71,16.745
3.684,0.642,-9.452,16.822
3.651,0.726,-9.657,16.823
4.385,1.092,-8.89,16.829
4.745,1.572,-9.19,16.831
3.88,1.84,-8.7,16.929
4.08,1.44,-8.7,16.939
3.908,1.504,-8.305,16.941
3.875,1.588,-8.51,16.942
3.015,-0.194,-8.811,17.006
2.926,0.36,-9.119,17.015
3.269,-0.137,-9.527,17.017
3.421,1.41,-9.266,17.018
2.368,-0.285,-9.43,17.12
2.168,-0.385,-8.93,17.122
2.506,-0.283,-9.534,17.124
2.391,-0.589,-9.021,17.125
2.534,-0.943,-9.415,17.227
2.423,-1.004,-8.891,17.228
2.57,-0.513,-8.974,17.23
2.643,-0.853,-8.694,17.232
3.827,-1.611,-8.769,17.324
4.218,-2.107,-8.113,17.325
4.291,-2.156,-8.224,17.327
3.036,-2.095,-10.065,17.329
