gyro_time_list,gyro_x_list,gyro_y_list,gyro_z_list
0.0,0.0,0.0,-0.1
0.002,1.3,-0.1,-0.1
0.004,0.4,0.1,-0.1
0.01,-0.1,0.3,0.0
0.105,-1.1,-0.1,0.3
0.111,-0.9,-0.3,-0.0
0.112,-0.1,-0.0,0.1
0.114,0.2,0.1,0.0
0.115,-0.1,-0.0,0.0
0.117,-0.2,-0.0,0.0
0.202,-0.0,0.0,0.0
0.203,-0.0,0.0,0.0
0.205,-0.0,0.0,0.0
0.207,-0.0,0.0,-0.0
0.209,-0.0,0.0,0.0
0.316,-0.0,0.0,0.0
0.318,-0.1,0.0,0.0
0.327,-0.0,0.0,0.0
0.329,-0.0,0.0,0.1
0.34,-0.1,0.0,0.1
0.405,-0.2,0.0,0.1
0.407,-0.4,0.1,0.2
0.409,-0.8,0.1,0.3
0.411,-1.3,0.1,0.5
0.413,-1.8,0.1,0.6
0.507,-2.2,0.1,0.7
0.509,-2.4,0.1,0.8
0.511,-2.4,0.3,0.9
0.512,-2.4,0.4,1.0
0.514,-2.5,0.5,1.0
0.607,-2.7,0.4,1.2
0.615,-2.7,0.5,1.3
0.616,-2.6,0.7,1.4
0.618,-2.4,0.7,1.5
0.62,-2.2,0.8,1.5
0.714,-2.1,0.8,1.4
0.716,-1.9,0.8,1.4
0.717,-1.5,0.8,1.4
0.727,-1.7,0.9,1.5
0.729,-2.2,0.9,1.6
0.805,-2.9,0.7,1.5
0.807,-3.0,0.5,1.5
0.809,-2.9,0.5,1.5
0.813,-2.7,0.3,1.5
0.815,-2.6,0.3,1.2
0.902,-2.7,0.3,1.1
0.904,-2.9,0.2,0.7
0.905,-2.8,-0.0,0.4
0.907,-1.0,-0.2,0.4
0.911,0.4,-0.3,0.1
1.002,0.7,-0.1,0.0
1.004,0.3,0.1,-0.1
1.005,0.3,0.4,-0.1
1.007,0.5,0.6,-0.1
1.009,0.4,0.6,-0.2
1.115,0.2,0.5,-0.1
1.116,0.1,0.5,-0.1
1.13,-0.1,0.4,-0.0
1.132,-0.2,0.4,0.0
1.134,-0.4,0.3,0.1
1.203,-0.4,0.2,0.1
1.205,-0.3,0.1,0.1
1.21,-0.3,0.1,0.1
1.211,-0.2,0.0,0.1
1.307,-0.2,-0.0,0.1
1.309,-0.2,-0.1,0.1
1.311,-0.2,-0.1,0.0
1.316,-0.2,-0.2,0.0
1.317,-0.2,-0.2,0.0
1.402,-0.2,-0.2,0.0
1.404,-0.2,-0.1,0.0
1.405,-0.2,-0.1,0.0
1.407,-0.2,-0.1,0.0
1.409,-0.1,-0.1,0.0
1.51,-0.1,-0.0,-0.0
1.511,-0.1,-0.0,-0.0
1.521,-0.1,-0.0,-0.0
1.523,-0.0,0.0,-0.0
1.524,-0.1,0.0,-0.0
1.602,-0.1,0.0,-0.0
1.608,-0.1,0.0,-0.0
1.61,-0.1,-0.0,-0.0
1.611,-0.0,-0.0,-0.0
1.613,-0.0,-0.0,-0.0
1.706,-0.0,-0.0,-0.0
1.711,-0.1,-0.0,-0.0
1.713,-0.1,-0.0,-0.0
1.714,-0.1,-0.1,-0.0
1.716,-0.1,-0.1,-0.0
1.802,-0.1,-0.1,-0.0
1.807,-0.1,-0.1,-0.0
1.809,-0.1,-0.1,-0.0
1.811,-0.1,-0.1,-0.0
1.812,-0.1,-0.1,-0.0
1.933,-0.0,-0.0,-0.0
1.943,-0.1,-0.0,-0.0
1.944,-0.1,-0.0,-0.0
1.946,-0.0,-0.0,-0.0
1.948,-0.0,-0.0,-0.0
2.007,-0.0,-0.0,-0.0
2.009,-0.0,-0.0,-0.0
2.01,-0.0,-0.0,-0.0
2.012,-0.0,-0.0,-0.0
2.013,-0.0,-0.0,0.0
2.106,-0.0,-0.0,0.0
2.108,-0.0,-0.0,-0.0
2.11,-0.0,-0.0,-0.0
2.111,0.0,-0.0,-0.0
2.113,-0.0,-0.0,-0.0
2.21,-0.0,-0.0,-0.0
2.217,-0.0,-0.0,-0.0
2.218,-0.0,-0.0,-0.0
2.22,-0.0,-0.0,-0.0
2.222,-0.0,-0.0,-0.0
2.301,-0.0,-0.0,0.0
2.303,-0.0,-0.0,-0.0
2.308,-0.0,-0.0,-0.0
2.31,-0.0,-0.0,-0.0
2.311,-0.0,-0.0,-0.0
2.406,-0.0,-0.0,-0.0
2.413,-0.0,-0.0,-0.0
2.415,-0.0,-0.0,-0.0
2.417,-0.0,-0.0,-0.0
2.418,-0.0,-0.0,-0.0
2.504,-0.0,-0.0,-0.0
2.505,-0.0,-0.0,-0.0
2.507,-0.0,-0.0,-0.0
2.512,-0.0,-0.0,-0.0
2.514,-0.0,-0.0,-0.0
2.61,-0.0,-0.0,-0.0
2.612,-0.0,-0.0,-0.0
2.613,-0.0,-0.0,-0.0
2.622,-0.1,-0.0,-0.0
2.632,-0.1,-0.0,-0.0
2.709,-0.1,-0.0,-0.0
2.71,-0.1,-0.0,-0.0
2.712,-0.0,-0.0,-0.0
2.713,-0.1,-0.0,-0.0
2.715,-0.1,-0.0,-0.0
2.804,-0.1,-0.0,-0.0
2.805,-0.0,-0.0,-0.0
2.807,-0.0,-0.0,-0.0
2.809,-0.0,-0.0,-0.0
2.915,-0.0,-0.0,-0.0
2.921,-0.0,0.0,-0.0
2.922,-0.1,0.0,-0.0
2.924,-0.0,0.0,-0.0
2.925,-0.0,0.0,-0.0
3.014,-0.0,0.0,-0.1
3.016,-0.0,0.0,-0.1
3.017,-0.1,-0.0,-0.1
3.019,-0.1,-0.0,-0.1
3.028,-0.0,0.0,-0.1
3.101,-0.1,-0.0,-0.1
3.106,-0.1,-0.0,-0.1
3.108,-0.0,0.0,-0.1
3.11,-0.1,-0.0,-0.1
3.111,-0.1,-0.0,-0.1
3.201,-0.2,-0.0,-0.1
3.203,-0.1,0.0,-0.1
3.204,-0.0,0.0,-0.1
3.206,-0.0,0.0,-0.2
3.207,-0.1,-0.0,-0.2
3.301,-0.1,-0.0,-0.2
3.303,-0.2,-0.0,-0.2
3.305,-0.2,-0.1,-0.2
3.306,-0.2,-0.1,-0.2
3.308,-0.2,-0.0,-0.2
3.412,-0.3,-0.1,-0.2
3.419,-0.2,-0.1,-0.2
3.42,-0.1,-0.1,-0.2
3.43,0.1,-0.1,-0.2
3.431,0.0,-0.0,-0.2
3.505,-0.1,-0.0,-0.2
3.506,-0.2,-0.0,-0.2
3.511,-0.1,-0.1,-0.2
3.513,0.1,-0.0,-0.2
3.514,-0.0,0.0,-0.2
3.605,-0.1,0.0,-0.2
3.607,-0.1,0.0,-0.3
3.608,0.0,0.0,-0.3
3.61,0.0,-0.0,-0.3
3.614,0.1,0.0,-0.3
3.701,-0.0,0.0,-0.3
3.702,-0.1,-0.0,-0.3
3.704,0.1,0.0,-0.4
3.705,0.3,0.0,-0.3
3.707,0.3,0.1,-0.3
3.809,0.2,0.1,-0.3
3.811,0.1,0.1,-0.3
3.82,0.3,0.0,-0.3
3.822,0.4,0.1,-0.3
3.823,0.3,0.1,-0.2
3.911,0.1,0.1,-0.3
3.913,0.1,0.1,-0.3
3.914,0.1,0.1,-0.2
3.916,0.1,0.2,-0.2
3.918,0.1,0.2,-0.2
4.001,-0.1,0.2,-0.2
4.003,-0.3,0.2,-0.1
4.004,-0.2,0.2,-0.2
4.006,0.1,0.2,-0.1
4.008,0.1,0.3,-0.1
4.101,-0.0,0.3,-0.2
4.103,0.1,0.2,-0.1
4.105,-0.1,0.3,-0.2
4.106,0.0,0.3,-0.1
4.108,0.1,0.2,-0.1
4.212,0.0,0.3,-0.1
4.222,0.0,0.2,-0.1
4.223,0.0,0.2,-0.1
4.235,-0.1,0.2,-0.1
4.236,-0.1,0.1,-0.1
4.305,-0.2,0.1,-0.1
4.307,-0.2,0.0,-0.1
4.309,-0.1,0.1,-0.1
4.31,-0.1,0.0,-0.1
4.312,-0.1,0.0,-0.1
4.411,-0.2,0.0,-0.1
4.412,-0.2,0.0,-0.1
4.414,-0.2,0.0,-0.1
4.415,-0.2,0.1,-0.2
4.417,-0.2,0.0,-0.2
4.504,-0.3,0.0,-0.2
4.506,-0.3,0.0,-0.2
4.508,-0.2,0.0,-0.2
4.509,-0.2,0.0,-0.2
4.615,-0.3,0.0,-0.2
4.625,-0.4,-0.0,-0.2
4.627,-0.5,-0.0,-0.2
4.635,-0.3,0.0,-0.2
4.637,-0.4,0.0,-0.3
4.709,-0.4,0.1,-0.2
4.711,-0.6,0.1,-0.3
4.716,-0.5,0.1,-0.2
4.717,-0.3,0.1,-0.1
4.719,-0.4,0.1,-0.2
4.805,-0.5,0.1,-0.1
4.807,-0.5,0.0,-0.1
4.809,0.6,0.1,0.2
4.81,0.6,0.4,-0.3
4.812,0.7,0.2,-0.2
4.911,1.0,0.4,-0.2
4.912,1.1,0.6,-0.3
4.914,0.8,0.7,-0.2
4.921,-0.3,0.6,-0.4
4.923,-1.4,0.3,-0.1
5.006,-1.7,0.0,0.3
5.01,-0.8,0.1,0.6
5.012,-0.5,0.3,0.4
5.014,-1.6,0.2,0.6
5.016,-3.0,-0.3,0.7
5.104,-4.2,-0.9,0.5
5.105,-3.3,-2.0,1.0
5.108,-1.6,-3.0,2.1
5.11,-6.0,-4.2,-3.0
5.113,-3.8,2.0,2.5
5.21,0.3,-0.9,-3.0
5.211,-1.8,0.4,-7.9
5.213,-3.8,-0.3,-6.5
5.215,-4.5,-0.7,-5.4
5.216,-4.4,-0.4,-5.7
5.317,-5.3,-1.0,-5.9
5.318,-8.7,-1.0,-7.0
5.32,-5.8,-1.4,-5.9
5.321,0.3,3.2,-5.2
5.339,5.9,4.6,-6.1
5.404,-7.1,-9.2,-0.0
5.406,-1.4,-0.9,-0.8
5.41,-3.1,-2.3,0.5
5.412,-2.2,-3.3,-2.0
5.414,-1.3,-3.8,-2.7
5.507,0.3,-2.4,-1.9
5.508,0.2,-2.2,-2.2
5.511,1.8,-0.2,-1.8
5.518,3.6,-0.1,-1.8
5.52,4.1,-1.1,-1.4
5.605,3.8,-1.4,-1.0
5.607,3.5,-1.5,-0.5
5.609,3.2,-1.5,-0.5
5.61,2.0,-1.5,-0.4
5.612,0.0,-2.0,-0.1
5.714,-1.8,-2.3,-0.2
5.717,-2.9,-2.0,-0.4
5.718,-3.5,-1.5,-0.6
5.728,-4.4,-1.1,-0.7
5.729,-5.7,-0.6,-1.0
5.807,-6.8,-0.0,-0.9
5.809,-7.1,0.0,-0.6
5.81,-5.1,1.0,0.2
5.812,-0.8,-0.8,0.5
5.814,2.8,-0.9,-0.2
5.907,2.2,-1.8,-0.6
5.91,0.0,0.7,0.5
5.912,0.4,1.4,-0.3
5.913,0.8,-0.2,-0.1
5.915,1.4,0.3,-0.2
6.006,1.3,-0.1,-0.0
6.007,0.9,-0.5,-0.0
6.009,0.3,-0.5,-0.1
6.011,-0.3,-0.5,-0.0
6.012,-0.6,-0.5,-0.0
6.114,-0.7,-0.5,0.1
6.117,-0.4,-0.5,0.1
6.135,0.0,-0.1,0.1
6.136,0.2,0.3,0.1
6.138,-0.1,0.5,0.1
6.202,-0.5,0.8,-0.0
6.204,-0.9,0.9,-0.1
6.207,-1.0,0.6,-0.1
6.209,-0.7,0.5,-0.2
6.301,-0.7,0.4,-0.2
6.302,-0.7,0.1,-0.1
6.304,-0.5,-0.3,-0.1
6.31,-0.1,-0.5,-0.1
6.312,0.0,-0.5,-0.2
6.403,-0.3,-0.5,-0.1
6.41,-0.5,-0.5,-0.1
6.412,-0.5,-0.4,-0.1
6.413,-0.2,-0.3,-0.0
6.418,-0.0,-0.2,-0.0
6.519,0.0,-0.2,-0.0
6.521,0.0,-0.1,0.0
6.531,0.0,-0.1,0.1
6.532,0.1,0.1,0.1
6.535,0.2,0.1,0.1
6.604,0.3,0.2,0.1
6.606,0.3,0.3,0.1
6.607,0.3,0.4,0.0
6.609,0.2,0.4,0.0
6.61,0.2,0.3,0.0
6.706,0.1,0.2,-0.0
6.708,0.0,0.1,-0.0
6.71,0.1,-0.1,-0.0
6.711,0.2,-0.2,-0.1
6.713,0.2,-0.2,-0.0
6.802,0.2,-0.2,-0.0
6.804,0.3,-0.2,0.0
6.812,0.3,-0.2,0.0
6.814,0.3,-0.2,0.1
6.815,0.3,-0.1,0.1
6.917,0.4,-0.1,0.1
6.932,0.4,-0.0,0.1
6.934,0.3,0.0,0.1
6.936,0.3,0.1,0.1
6.938,0.2,0.1,0.1
7.003,0.2,0.2,0.1
7.008,0.2,0.2,0.0
7.009,0.1,0.1,0.0
7.011,0.1,0.1,0.0
7.013,0.0,0.1,0.0
7.1,0.0,0.0,-0.0
7.102,-0.0,-0.0,-0.0
7.106,-0.0,-0.1,-0.0
7.112,-0.0,-0.1,-0.0
7.113,-0.1,-0.2,-0.0
7.219,-0.1,-0.1,-0.0
7.221,-0.1,-0.1,-0.0
7.222,-0.1,-0.1,-0.0
7.225,-0.1,-0.1,-0.0
7.227,-0.1,-0.0,-0.0
7.304,-0.1,-0.0,-0.0
7.305,-0.1,0.0,-0.0
7.307,-0.1,0.1,-0.0
7.309,-0.1,0.1,-0.0
7.31,-0.1,0.1,-0.0
7.408,0.0,0.0,-0.0
7.411,0.1,0.0,-0.0
7.413,-0.0,0.1,-0.0
7.415,-0.1,-0.0,-0.0
7.417,0.0,-0.1,-0.0
7.5,0.1,-0.0,-0.0
7.501,0.2,-0.0,-0.0
7.508,0.1,-0.1,-0.0
7.509,0.1,-0.1,0.0
7.511,0.2,-0.1,0.0
7.623,0.2,-0.0,0.0
7.624,0.3,-0.0,0.0
7.626,0.3,0.0,0.0
7.628,0.2,0.1,0.0
7.638,0.2,0.0,0.0
7.703,0.3,0.1,0.0
7.712,0.4,0.1,0.0
7.716,0.5,0.2,0.1
7.718,0.5,0.2,0.1
7.72,0.5,0.2,0.1
7.808,0.6,0.2,0.1
7.809,1.1,0.3,0.1
7.811,2.3,0.3,0.3
7.812,5.3,0.5,0.6
7.905,8.2,0.6,0.3
7.907,10.2,0.6,0.4
7.908,8.9,0.9,-0.1
7.91,5.1,1.8,0.7
7.912,2.1,1.4,0.2
8.015,0.7,1.4,-0.4
8.017,0.8,1.2,0.1
8.02,0.2,1.0,-0.2
8.028,-0.1,0.7,-0.2
8.039,0.4,0.4,-0.2
8.108,0.3,0.3,-0.2
8.11,0.0,0.1,-0.2
8.112,0.0,0.2,-0.2
8.113,0.1,0.3,-0.2
8.115,-0.1,0.4,-0.2
8.206,-0.2,0.4,-0.3
8.208,-0.4,0.3,-0.3
8.209,-0.2,0.3,-0.2
8.211,0.1,0.3,-0.2
8.218,0.1,0.2,-0.1
8.3,-0.4,0.0,0.0
8.302,-0.4,-0.1,0.1
8.303,0.4,-0.0,0.1
8.307,0.4,-0.1,0.1
8.309,-0.1,-0.2,0.2
8.421,-0.5,-0.2,0.2
8.422,-0.1,-0.1,0.1
8.424,0.3,-0.0,0.1
8.435,0.1,-0.1,0.1
8.436,-0.3,-0.1,0.1
8.504,-0.2,-0.0,0.1
8.505,0.2,0.0,0.0
8.507,0.2,-0.0,0.1
8.509,-0.2,-0.1,0.1
8.51,-0.1,-0.0,0.1
8.608,0.1,0.0,0.0
8.61,0.1,0.0,0.1
8.613,0.1,0.0,0.1
8.614,0.0,0.0,0.1
8.616,0.1,0.0,0.1
8.704,0.1,0.0,0.1
8.706,0.1,0.0,0.2
8.707,0.3,0.0,0.3
8.709,0.3,0.0,0.3
8.711,0.2,0.1,0.2
8.819,0.1,0.2,0.2
8.821,-0.1,0.3,0.1
8.832,-0.2,0.3,-0.0
8.834,-0.5,0.3,-0.1
8.836,-0.4,0.2,-0.0
8.905,-0.0,0.2,-0.0
8.907,0.0,0.1,-0.1
8.909,-0.1,0.1,-0.1
8.91,-0.3,0.1,-0.1
8.915,-0.3,0.0,0.1
9.0,0.1,0.1,-0.0
9.002,0.4,0.1,-0.1
9.003,-0.1,0.2,-0.3
9.005,-0.0,0.2,-0.5
9.006,-0.3,0.5,-0.5
9.1,-0.5,0.3,-0.3
9.102,-0.3,0.4,-0.1
9.103,0.0,0.5,-0.0
9.105,0.3,0.5,-0.3
9.111,0.0,0.5,-0.5
9.218,0.1,0.5,-0.4
9.229,0.1,0.5,-0.5
9.23,-0.1,0.6,-0.6
9.232,0.0,0.6,-0.7
9.234,0.1,0.7,-0.6
9.303,0.1,0.8,-0.7
9.305,0.2,0.7,-0.9
9.306,-1.8,-0.5,-2.7
9.312,-0.4,1.1,-0.5
9.314,0.2,0.9,-0.3
9.4,0.3,0.6,-0.3
9.407,0.2,0.9,0.3
9.409,0.6,2.4,1.5
9.412,1.0,0.9,-0.6
9.414,0.2,0.2,0.3
9.497,0.0,0.9,-0.5
9.499,0.5,0.7,-0.0
9.501,-0.2,0.9,-0.3
9.506,-0.4,0.6,-0.3
9.619,-0.1,0.6,-0.3
9.631,-0.2,0.5,-0.1
9.632,-0.4,0.3,0.1
9.634,-0.1,0.5,0.1
9.636,0.4,0.5,-0.2
9.701,0.0,0.3,-0.5
9.707,0.1,0.1,-0.3
9.709,0.3,0.0,-0.1
9.71,0.8,0.2,-0.1
9.712,1.2,0.1,-0.2
9.8,1.1,-0.2,0.6
9.802,0.8,-0.3,0.7
9.805,0.6,-0.4,1.0
9.806,0.6,-0.3,0.7
9.808,0.6,-0.2,0.4
9.91,0.4,-0.1,0.4
9.921,0.3,-0.1,0.4
9.923,0.2,-0.1,0.5
9.925,0.3,-0.0,0.6
9.926,0.4,0.1,0.6
10.004,0.4,0.2,0.5
10.006,-0.1,0.3,0.1
10.009,-0.5,0.3,-0.1
10.01,-1.0,0.2,0.0
10.012,-1.1,0.3,-0.2
10.109,-2.3,-0.5,-1.3
10.111,-0.9,0.1,0.2
10.113,0.5,0.3,0.1
10.115,-0.3,0.2,0.2
10.117,-0.3,0.1,-0.0
10.2,-0.2,0.0,0.1
10.201,-0.1,0.0,0.0
10.203,-0.2,-0.0,0.1
10.209,-0.4,-0.1,0.1
10.21,-0.5,-0.1,-0.0
10.315,-0.4,-0.1,-0.0
10.317,-0.2,-0.1,-0.5
10.326,0.1,-0.1,0.3
10.327,-0.4,-0.0,-0.0
10.339,-0.5,0.1,-0.0
10.4,-0.2,0.1,-0.0
10.405,0.1,0.1,0.3
10.407,0.5,0.1,0.3
10.409,0.7,-0.2,0.2
10.41,0.5,-0.1,-0.1
10.504,0.1,-0.1,0.1
10.505,0.0,-0.2,0.4
10.507,0.5,-0.1,0.4
10.509,0.8,0.1,-0.1
10.51,0.5,0.1,-0.2
10.604,0.2,0.3,-0.7
10.605,0.2,0.2,-0.5
10.607,0.2,-0.1,0.2
10.609,0.1,-0.1,0.6
10.61,-0.1,0.2,0.1
10.712,-0.4,0.3,-0.5
10.723,-0.9,0.1,-0.5
10.724,-0.5,-0.4,-0.1
10.735,-0.2,-0.4,-0.0
10.737,-0.0,0.1,-0.2
10.803,-0.4,-0.0,-0.1
10.805,-0.2,-0.0,-0.1
10.81,-0.2,0.0,-0.1
10.812,-0.4,0.1,-0.1
10.813,-0.5,0.0,-0.1
10.904,-0.6,-0.0,-0.1
10.906,-0.6,0.0,-0.1
10.908,-0.5,0.1,-0.0
10.909,-0.4,0.2,0.1
10.911,-0.4,0.2,0.0
11.006,-0.1,0.1,0.2
11.007,0.3,-0.1,0.2
11.009,0.2,-0.2,0.5
11.01,0.3,-0.3,0.5
11.012,0.3,-0.2,0.2
11.101,0.4,-0.1,0.1
11.103,0.2,-0.1,0.1
11.119,0.3,-0.0,0.3
11.12,0.4,0.1,0.2
11.196,0.5,0.1,0.0
11.198,0.3,-0.0,0.3
11.199,0.2,-0.1,0.3
11.204,0.0,-0.2,0.3
11.308,0.1,-0.2,0.1
11.31,0.4,0.1,-0.6
11.311,0.7,-0.1,-0.2
11.313,0.8,-0.3,0.8
11.314,0.6,-0.4,0.9
11.316,0.3,-0.4,0.7
11.399,0.0,-0.1,0.0
11.401,-0.4,0.1,-0.5
11.402,-0.9,0.0,-0.5
11.404,-1.1,-0.2,-2.5
11.411,-0.8,0.2,0.0
11.511,0.6,0.0,-0.1
11.513,0.1,0.3,-0.0
11.526,-0.2,-0.1,-0.1
11.529,0.0,-0.1,0.0
11.531,0.0,-0.0,-0.1
11.603,-0.0,-0.0,-0.0
11.604,0.0,-0.1,-0.0
11.609,-0.0,-0.0,-0.0
11.61,-0.1,0.1,-0.0
11.612,0.0,0.1,0.0
11.699,-0.0,0.0,-0.0
11.701,-0.0,0.0,0.0
11.702,-0.0,0.1,0.0
11.704,0.0,0.1,0.0
11.706,0.0,0.1,-0.0
11.804,0.0,0.0,0.0
11.805,0.0,0.0,0.0
11.807,0.0,0.0,0.0
11.808,-0.0,-0.0,0.0
11.81,-0.0,0.0,0.0
11.912,-0.0,-0.0,0.0
11.923,0.0,0.0,0.0
11.925,-0.0,0.0,0.0
11.926,-0.1,-0.0,0.0
11.943,-0.0,-0.1,0.0
12.018,0.0,-0.0,0.0
12.02,0.0,-0.0,0.0
12.022,-0.0,-0.0,0.0
12.023,-0.1,-0.0,0.0
12.025,0.0,-0.0,0.0
12.109,0.1,0.0,-0.0
12.111,0.0,0.0,0.0
12.112,0.2,0.1,0.0
12.114,1.3,0.2,-0.1
12.115,0.8,0.4,0.0
