vertical_Accel_x,vertical_Accel_y,vertical_Accel_z,accel_time_list
1.686,7.339,6.983,0.0
1.62,7.169,7.064,0.003
1.68,7.531,7.136,0.005
1.772,7.735,7.146,0.006
0.152,11.51,8.103,0.008
5.191,4.16,7.589,0.1
1.469,10.703,6.483,0.102
-0.125,7.711,7.03,0.103
1.462,5.994,6.435,0.108
1.906,8.008,6.348,0.11
1.262,6.894,6.935,0.225
1.505,7.42,7.006,0.227
1.94,7.238,6.728,0.228
1.737,6.361,6.444,0.23
1.802,6.288,6.342,0.232
1.879,6.387,6.615,0.326
1.815,6.705,6.738,0.328
1.483,6.463,6.699,0.33
1.68,6.731,6.436,0.331
1.687,6.783,6.305,0.343
1.446,6.502,6.255,0.345
1.526,6.533,5.891,0.425
1.672,6.735,5.446,0.427
1.617,6.793,4.78,0.428
1.617,5.993,4.08,0.43
0.491,3.06,4.185,0.432
-0.907,0.813,4.319,0.5
-1.105,0.523,4.728,0.501
-0.606,1.468,5.174,0.503
-1.159,2.024,4.883,0.505
-1.823,1.672,5.095,0.51
-2.185,0.2,5.849,0.623
-2.772,-0.3,6.477,0.625
-4.105,-1.1,6.95,0.626
-2.828,-5.047,6.811,0.726
-3.252,-6.131,6.207,0.728
-3.619,-7.522,5.982,0.73
-4.469,-8.336,5.82,0.731
-4.765,-8.446,5.828,0.746
-5.299,-9.428,6.277,0.747
0.067,-13.522,2.116,0.81
-0.837,-14.188,2.118,0.812
-1.441,-15.053,1.22,0.817
-0.676,-15.695,2.052,0.819
1.383,-15.847,-2.889,0.821
1.636,-15.523,-3.091,0.822
2.822,-14.066,-4.425,0.923
2.695,-13.009,-4.069,0.925
0.843,-11.784,-5.716,0.926
2.863,-9.637,-7.627,1.001
2.463,-9.237,-7.627,1.007
3.38,-9.02,-7.604,1.009
3.378,-7.822,-7.984,1.011
3.473,-7.927,-6.425,1.012
3.386,-7.414,-6.963,1.014
3.458,-5.778,-8.893,1.123
2.474,-6.554,-6.718,1.125
2.537,-6.697,-6.299,1.135
2.735,-7.265,-6.753,1.142
2.761,-7.639,-6.408,1.226
2.825,-7.975,-6.255,1.228
2.557,-8.243,-6.469,1.229
2.386,-8.614,-6.163,1.231
2.176,-8.924,-6.165,1.233
2.163,-9.337,-5.627,1.234
-0.335,-10.476,-3.224,1.325
-0.531,-10.657,-2.443,1.327
0.387,-10.881,0.955,1.328
0.696,-10.927,-0.315,1.333
0.846,-10.986,-0.788,1.335
0.76,-10.624,-1.389,1.4
0.389,-10.017,-0.738,1.401
0.1,-9.5,-1.0,1.403
-0.034,-9.015,-1.42,1.405
-0.214,-8.662,-1.099,1.406
1.059,-8.023,-3.528,1.498
1.252,-7.922,-3.64,1.51
0.582,-8.298,-2.905,1.515
0.673,-8.427,-2.718,1.517
0.5,-8.62,-2.34,1.606
0.618,-8.762,-2.015,1.608
0.836,-9.104,-2.089,1.609
0.964,-9.316,-2.351,1.611
1.055,-9.425,-2.524,1.613
1.091,-9.529,-2.613,1.725
1.091,-9.529,-2.613,1.727
1.2,-9.56,-2.42,1.728
1.382,-9.498,-2.305,1.73
1.703,-9.655,-1.739,1.735
2.184,-9.626,-1.906,1.826
2.51,-9.565,-1.916,1.829
2.608,-9.528,-2.524,1.831
2.396,-9.427,-2.815,1.833
2.339,-9.358,-3.265,1.834
1.938,-9.24,-3.618,1.841
1.906,-8.245,-5.458,1.925
1.591,-8.221,-5.445,1.93
1.504,-8.112,-5.462,1.931
1.542,-8.138,-5.243,1.933
1.429,-8.17,-4.861,1.935
1.496,-8.188,-4.738,2.025
1.393,-8.277,-4.776,2.026
1.357,-8.384,-4.691,2.028
1.32,-8.491,-4.606,2.03
1.245,-8.572,-4.74,2.031
-0.173,-9.063,-4.137,2.127
-0.192,-9.061,-4.039,2.128
-0.308,-9.239,-4.161,2.142
-0.212,-9.359,-4.241,2.145
-0.057,-9.184,-4.316,2.151
1.384,-8.898,-4.621,2.199
1.583,-8.82,-4.556,2.201
1.648,-8.705,-4.736,2.203
1.555,-8.828,-4.46,2.205
1.689,-8.865,-4.214,2.223
1.427,-9.557,-2.156,2.299
1.461,-9.542,-1.935,2.301
1.443,-9.431,-1.849,2.304
1.443,-9.431,-1.849,2.4
1.431,-9.53,-1.841,2.401
1.397,-9.545,-2.061,2.403
1.332,-9.548,-2.187,2.408
1.219,-9.429,-2.132,2.41
1.249,-9.441,-2.227,2.499
1.219,-9.429,-2.132,2.501
1.249,-9.441,-2.227,2.503
1.249,-9.441,-2.227,2.504
1.219,-9.429,-2.132,2.506
1.261,-9.342,-2.235,2.6
1.296,-9.327,-2.015,2.607
1.326,-9.339,-2.11,2.608
1.386,-9.362,-2.299,2.61
1.416,-9.374,-2.394,2.612
2.7,-9.0,-3.1,2.703
2.738,-9.0,-3.192,2.705
2.738,-9.0,-3.192,2.706
2.831,-8.9,-3.154,2.708
2.777,-8.9,-3.285,2.71
2.777,-8.9,-3.285,2.799
2.777,-8.9,-3.285,2.8
2.777,-8.9,-3.285,2.802
2.723,-8.9,-3.415,2.808
2.685,-8.9,-3.323,2.81
2.685,-9.0,-3.323,2.905
2.685,-9.0,-3.323,2.907
2.646,-9.0,-3.231,2.909
2.738,-9.0,-3.192,2.912
2.738,-8.9,-3.192,2.915
2.7,-9.0,-3.1,3.024
2.754,-9.0,-2.969,3.026
2.754,-9.0,-2.969,3.033
2.715,-9.0,-2.877,3.034
2.754,-8.9,-2.969,3.046
2.754,-9.0,-2.969,3.126
2.662,-9.0,-3.008,3.128
2.662,-9.0,-3.008,3.13
2.754,-9.0,-2.969,3.131
2.662,-9.0,-3.008,3.133
2.662,-9.0,-3.008,3.134
2.662,-8.9,-3.008,3.224
2.662,-8.9,-3.008,3.226
2.7,-8.9,-3.1,3.228
2.7,-8.9,-3.1,3.229
2.7,-8.9,-3.1,3.231
2.738,-8.9,-3.192,3.323
2.738,-8.9,-3.192,3.329
2.7,-8.9,-3.1,3.331
2.792,-8.9,-3.062,3.333
2.792,-8.9,-3.062,3.335
2.792,-8.9,-3.062,3.403
2.792,-8.9,-3.062,3.405
2.7,-8.9,-3.1,3.422
2.7,-9.0,-3.1,3.424
2.738,-9.0,-3.192,3.426
2.369,-8.767,-3.996,3.501
2.29,-8.656,-4.032,3.503
2.277,-8.682,-3.81,3.504
2.327,-8.675,-3.897,3.506
2.285,-8.584,-3.798,3.598
2.327,-8.675,-3.897,3.6
2.376,-8.668,-3.984,3.601
2.463,-8.68,-3.935,3.603
2.463,-8.68,-3.935,3.699
2.426,-8.661,-4.07,3.7
2.475,-8.654,-4.157,3.702
2.475,-8.654,-4.157,3.704
2.433,-8.562,-4.058,3.705
2.49,-8.456,-4.132,3.799
2.346,-8.549,-4.106,3.805
2.297,-8.557,-4.02,3.807
2.346,-8.549,-4.106,3.817
2.26,-8.537,-4.155,3.819
2.253,-8.636,-4.167,3.899
2.223,-8.518,-4.29,3.901
2.173,-8.525,-4.203,3.902
2.215,-8.616,-4.302,3.904
2.223,-8.518,-4.29,3.906
2.129,-8.604,-4.351,4.024
2.129,-8.604,-4.351,4.025
2.215,-8.616,-4.302,4.027
2.245,-8.735,-4.179,4.028
2.196,-8.742,-4.093,4.03
1.092,-8.298,-5.211,4.125
1.053,-8.313,-5.121,4.126
0.974,-8.343,-4.94,4.128
1.009,-8.477,-4.836,4.13
1.175,-8.619,-4.787,4.131
1.175,-8.619,-4.787,4.133
1.03,-8.708,-4.755,4.224
0.94,-8.685,-4.791,4.235
0.864,-8.566,-4.804,4.236
0.885,-8.796,-4.723,4.24
0.96,-8.915,-4.709,4.241
0.836,-8.634,-4.496,4.323
0.826,-8.457,-4.36,4.329
0.86,-8.115,-4.509,4.33
1.616,-7.116,-5.205,4.332
1.363,-7.143,-5.081,4.334
1.526,-7.006,-5.202,4.424
1.705,-7.225,-5.208,4.425
1.621,-7.021,-5.174,4.427
1.758,-6.818,-5.173,4.429
1.642,-6.642,-5.047,4.43
1.735,-6.765,-4.253,4.524
1.539,-6.761,-4.292,4.531
1.437,-6.563,-4.273,4.532
1.457,-6.543,-4.369,4.534
1.416,-6.384,-4.657,4.536
2.496,-6.573,-3.515,4.624
2.482,-6.711,-3.114,4.63
2.806,-6.829,-2.329,4.632
1.998,-6.79,-2.49,4.634
0.733,-6.767,-3.967,4.635
-0.835,-6.965,-1.247,4.738
-0.886,-6.014,1.463,4.741
0.153,-5.647,1.716,4.744
-0.36,-4.884,3.649,4.746
-0.026,-4.151,4.283,4.748
0.084,-4.946,2.62,4.824
-0.568,-6.207,1.96,4.825
-1.507,-7.283,2.184,4.827
-1.875,-8.49,1.943,4.829
-1.736,-8.755,2.145,4.83
-1.451,-9.42,2.513,4.9
-1.309,-10.464,2.336,4.902
-0.717,-12.187,2.346,4.913
-0.491,-13.036,2.564,4.915
-0.49,-12.496,1.637,4.927
-0.925,-11.91,2.357,4.998
-0.639,-12.276,2.424,5.003
-0.369,-12.989,0.416,5.006
0.436,-12.944,0.618,5.007
1.516,-11.444,2.935,5.099
0.344,-11.48,3.208,5.1
1.144,-12.08,2.808,5.102
1.592,-12.44,2.544,5.104
1.788,-11.86,2.616,5.105
3.574,-11.136,1.679,5.201
4.207,-11.218,1.392,5.203
5.03,-11.226,2.128,5.204
4.727,-11.317,2.983,5.206
4.841,-11.653,2.566,5.213
5.271,-11.927,2.233,5.298
5.469,-11.722,1.81,5.3
5.018,-10.746,1.929,5.301
5.028,-9.969,2.144,5.303
4.867,-10.402,0.875,5.399
4.9,-9.641,0.865,5.4
4.567,-8.655,0.786,5.402
4.633,-8.516,0.596,5.404
4.633,-8.21,0.873,5.405
4.467,-8.337,0.616,5.501
4.667,-8.384,0.704,5.503
4.933,-8.798,1.125,5.51
5.7,-10.059,-0.265,5.512
3.754,-10.082,1.734,5.517
4.469,-10.509,1.972,5.599
4.746,-10.718,1.266,5.605
4.805,-10.688,-0.037,5.606
5.397,-10.787,-0.058,5.608
4.815,-9.327,2.338,5.61
3.403,-9.113,0.658,5.726
2.496,-9.049,-0.411,5.728
3.008,-8.463,1.669,5.729
2.663,-8.42,1.309,5.731
1.482,-8.06,-0.296,5.743
-0.445,-7.044,0.805,5.831
1.391,-9.333,1.829,5.833
0.682,-8.865,4.058,5.836
0.282,-8.345,3.418,5.838
1.509,-9.447,2.631,5.839
0.873,-8.39,4.999,5.841
1.33,-8.291,5.036,5.923
1.92,-10.863,0.242,5.925
1.28,-8.737,1.658,5.927
2.913,-8.908,2.228,5.932
4.256,-10.907,3.992,5.933
3.106,-11.861,5.369,6.023
2.243,-9.999,5.364,6.025
5.039,-10.525,3.284,6.027
4.073,-11.347,0.867,6.028
1.518,-6.569,-0.078,6.034
3.706,-3.585,-0.787,6.123
4.568,-4.874,-2.164,6.125
3.419,-5.555,4.038,6.137
2.651,-8.281,2.202,6.138
4.666,-10.013,-1.968,6.146
4.473,-10.494,-1.792,6.23
4.94,-9.009,-1.512,6.233
2.842,-7.602,-0.436,6.234
2.397,-9.261,-1.114,6.236
4.781,-10.465,-1.387,6.238
5.081,-9.865,-3.287,6.299
4.077,-9.279,-0.639,6.306
4.627,-9.106,-0.008,6.308
4.519,-8.535,-0.213,6.31
5.524,-9.067,1.577,6.312
4.788,-8.243,-2.858,6.397
4.8,-7.1,-0.9,6.398
3.684,-7.558,-0.61,6.403
6.4,-8.782,-2.871,6.406
4.601,-7.938,2.153,6.498
4.571,-7.784,2.477,6.5
4.649,-9.431,0.124,6.511
3.445,-8.081,1.713,6.517
2.958,-7.832,4.845,6.518
5.278,-10.557,4.223,6.623
5.041,-10.412,4.874,6.625
3.004,-7.074,7.079,6.627
4.263,-9.962,4.906,6.628
-0.305,-9.333,1.476,6.63
1.238,-9.817,0.144,6.725
2.467,-9.833,1.467,6.73
3.066,-10.596,1.914,6.732
3.167,-10.22,-0.955,6.738
5.8,-10.588,-2.247,6.74
6.5,-10.559,-1.665,6.742
6.996,-9.914,0.147,6.828
4.768,-9.062,-4.882,6.83
5.961,-7.437,-4.449,6.832
5.389,-5.09,-1.22,6.833
4.476,-3.633,-0.777,6.835
4.789,-3.891,-2.321,6.928
6.838,-5.711,-2.923,6.93
4.702,-5.562,-0.296,6.931
4.751,-5.881,0.702,6.933
5.306,-6.485,1.013,6.936
4.16,-7.228,-0.281,6.999
5.117,-9.194,-0.666,7.001
7.268,-10.274,0.436,7.003
5.104,-8.423,3.109,7.004
4.457,-8.166,4.315,7.006
5.405,-10.032,1.391,7.096
7.745,-11.211,-0.996,7.099
6.034,-9.032,-0.587,7.101
3.63,-8.24,-1.364,7.198
2.191,-6.417,-1.053,7.2
3.836,-6.628,-2.149,7.206
2.67,-4.66,-3.036,7.208
1.46,-3.481,-3.328,7.209
0.296,-3.469,-4.825,7.298
-0.423,-3.239,-5.109,7.318
0.635,-2.842,-4.787,7.32
2.569,-7.063,-5.547,7.33
6.344,-7.622,-7.444,7.331
7.301,-4.419,-8.326,7.398
6.849,0.787,-12.96,7.4
7.549,0.087,-14.06,7.402
3.081,-1.564,-10.608,7.404
3.562,-1.428,-10.615,7.41
5.1,2.1,-9.9,7.498
3.167,0.067,-9.133,7.5
3.467,-1.433,-9.133,7.501
4.5,1.1,-11.0,7.503
4.133,3.233,-12.867,7.505
3.383,3.906,-11.192,7.598
4.604,0.932,-9.191,7.6
4.713,0.162,-9.117,7.602
3.815,0.428,-10.162,7.603
6.323,3.892,-9.043,7.605
4.803,4.435,-9.12,7.7
3.988,4.817,-10.215,7.702
5.373,6.399,-10.41,7.704
6.788,7.017,-10.015,7.705
4.27,9.064,-11.691,7.707
3.408,8.444,-12.62,7.822
-7.011,-6.689,-8.044,7.824
-3.144,-2.336,-6.738,7.826
0.467,2.513,-7.573,7.828
0.01,-0.594,-4.516,7.83
3.271,2.943,-5.514,7.926
6.339,3.763,-6.802,7.928
8.367,4.32,-7.688,7.93
6.853,3.192,-6.345,7.932
6.512,1.867,-5.78,7.933
6.767,0.92,-6.288,7.935
8.207,-1.406,-6.203,8.023
8.7,-0.4,-8.7,8.025
9.263,-0.772,-8.186,8.026
7.775,-1.106,-7.653,8.036
7.264,-1.498,-7.299,8.038
6.06,-6.053,-5.752,8.123
5.884,-7.128,-4.506,8.125
4.946,-6.649,-4.12,8.133
3.254,-5.851,-3.68,8.135
3.711,-6.337,-3.183,8.138
5.723,-7.3,-4.621,8.222
4.983,-5.9,-5.809,8.224
4.543,-6.3,-3.298,8.226
7.275,-7.758,-1.684,8.227
9.927,-5.376,-7.84,8.229
7.196,-4.432,-10.451,8.323
6.423,-3.508,-8.191,8.329
6.711,-1.738,-6.498,8.331
5.856,-2.649,-3.709,8.332
5.568,-4.289,-3.05,8.334
6.092,-4.564,-4.103,8.423
6.94,-4.547,-5.148,8.425
7.533,-3.978,-7.213,8.435
8.355,-4.218,-7.842,8.444
6.616,-4.072,-5.594,8.446
4.542,-4.5,-2.355,8.523
5.981,-4.9,-1.366,8.525
7.279,-5.7,-3.823,8.527
8.004,-6.1,-5.687,8.528
7.017,-6.2,-5.191,8.53
7.598,-5.3,-4.257,8.623
7.779,-5.4,-4.723,8.624
6.889,-5.5,-4.64,8.626
6.389,-5.2,-3.74,8.632
6.823,-5.4,-3.421,8.634
6.64,-6.511,-4.943,8.723
5.738,-6.218,-3.473,8.725
6.104,-6.185,-3.84,8.726
6.212,-6.209,-4.034,8.728
6.395,-6.069,-4.875,8.729
6.031,-5.841,-5.463,8.823
5.889,-5.738,-3.551,8.836
6.224,-5.917,-4.269,8.837
6.263,-6.228,-4.312,8.839
5.747,-6.134,-3.838,8.84
5.367,-6.767,-3.033,8.923
6.144,-6.778,-3.156,8.925
5.981,-6.926,-2.952,8.926
5.448,-6.793,-3.085,8.928
6.296,-6.685,-2.77,8.929
6.915,-7.359,-2.619,9.022
6.156,-7.022,-2.244,9.024
6.352,-6.807,-2.815,9.025
6.537,-7.348,-3.796,9.027
5.919,-7.174,-2.348,9.123
5.567,-6.567,-2.433,9.124
5.43,-7.019,-2.037,9.126
5.604,-7.415,-2.53,9.128
5.833,-7.633,-1.867,9.129
5.785,-7.441,-0.881,9.223
5.326,-6.504,-1.107,9.232
4.126,-6.104,-2.807,9.234
4.07,-6.581,-5.163,9.236
4.838,-5.518,-6.573,9.238
7.599,-1.336,-6.395,9.323
7.039,-1.416,-6.695,9.324
7.366,0.813,-8.568,9.326
7.07,1.236,-8.96,9.328
5.202,-0.238,-8.096,9.329
3.638,-1.689,-6.823,9.423
3.83,-1.636,-7.14,9.424
4.415,-0.268,-9.27,9.426
4.054,0.532,-10.738,9.428
4.746,0.068,-11.062,9.429
5.116,2.01,-11.249,9.523
5.647,2.429,-10.847,9.525
7.124,1.865,-9.324,9.527
6.335,-0.453,-6.235,9.528
6.355,0.584,-6.822,9.53
5.632,1.997,-4.551,9.597
4.571,-0.332,-4.216,9.599
6.373,0.912,-5.894,9.6
6.494,0.669,-5.765,9.606
5.913,-1.818,-5.247,9.607
6.487,-1.87,-7.026,9.704
6.109,-1.153,-10.383,9.705
10.57,-2.164,-6.06,9.707
11.194,-2.585,-4.713,9.708
5.895,-3.481,-5.676,9.798
4.929,-3.714,-6.243,9.8
3.482,-5.588,-3.41,9.805
4.396,-5.845,-7.281,9.807
2.904,-4.255,-9.219,9.81
2.231,-4.141,-11.263,9.923
16.09,-4.484,-22.935,9.924
14.181,-2.368,-17.671,9.926
6.619,-0.832,-6.929,9.928
5.856,-3.504,-1.117,9.929
6.767,-9.137,5.516,10.024
6.667,-11.12,-0.755,10.025
-0.9,-4.871,6.582,10.027
0.6,-8.529,6.218,10.029
2.867,-8.378,2.18,10.03
1.294,-2.739,9.185,10.032
5.361,-11.906,-0.948,10.097
8.804,-9.44,-1.157,10.099
7.499,-7.59,5.614,10.101
7.497,-11.67,-2.058,10.102
4.9,-8.147,-1.512,10.107
4.567,-8.714,1.322,10.222
4.7,-8.541,-0.135,10.225
2.767,-6.496,2.051,10.226
4.1,-10.765,-2.341,10.228
3.733,-9.645,-2.386,10.311
4.367,-9.92,-2.155,10.314
6.433,-11.233,-3.233,10.316
6.5,-11.688,-4.647,10.318
5.433,-9.169,1.608,10.33
5.933,-7.298,3.625,10.332
3.048,-7.28,4.964,10.422
1.117,-3.985,7.628,10.425
0.277,-3.683,6.074,10.426
0.157,-2.387,8.181,10.499
0.296,-2.179,8.668,10.502
0.734,-3.17,9.255,10.504
0.67,-2.651,8.477,10.505
0.157,-5.187,7.881,10.507
-0.865,-4.952,7.155,10.509
-0.048,-2.291,10.126,10.596
0.413,-2.348,9.557,10.597
-0.022,-2.487,8.639,10.599
-0.413,-3.552,10.043,10.601
-0.396,-0.883,9.652,10.697
0.496,-0.117,7.348,10.699
0.2,0.9,8.5,10.7
-1.4,-1.4,9.4,10.702
-0.004,-1.917,8.948,10.731
-0.096,-4.483,10.252,10.797
0.178,-2.987,9.939,10.799
0.33,-2.278,9.465,10.8
1.439,-2.943,9.27,10.802
1.196,-4.717,10.548,10.804
0.878,-3.387,9.439,10.897
0.774,-2.404,9.187,10.899
0.526,-2.296,9.713,10.9
1.1,-1.7,9.1,10.902
0.817,-2.73,9.009,10.903
1.222,-3.895,9.103,10.996
1.769,-4.726,9.324,10.998
2.164,-4.989,9.166,11.0
1.424,-3.889,9.346,11.001
1.609,-3.826,8.944,11.008
1.604,-4.489,9.086,11.097
1.679,-3.253,8.668,11.099
1.617,-4.158,8.945,11.1
1.607,-4.432,8.301,11.112
1.618,-3.705,9.017,11.114
1.639,-3.253,8.948,11.222
0.809,-3.726,8.044,11.223
1.54,-4.4,9.22,11.225
1.164,-4.289,8.666,11.227
2.993,-6.568,9.499,11.228
0.993,-3.268,8.499,11.324
1.737,-4.158,8.105,11.331
1.114,-3.416,8.731,11.332
1.396,-5.311,8.414,11.334
1.496,-5.611,8.214,11.336
0.752,-5.021,9.107,11.338
0.355,-3.677,8.615,11.427
1.464,-4.719,6.879,11.429
2.179,-6.794,7.44,11.432
2.685,-8.426,7.338,11.434
2.913,-8.364,6.796,11.435
4.191,-7.736,6.136,11.522
3.255,-6.082,6.882,11.533
2.536,-5.655,6.655,11.535
2.945,-6.518,6.818,11.536
2.891,-6.936,6.336,11.538
2.6,-7.4,5.9,11.622
2.264,-6.845,6.245,11.623
1.955,-6.282,6.082,11.625
1.645,-6.518,6.218,11.627
1.509,-6.964,6.164,11.628
1.345,-6.018,6.918,11.722
1.418,-6.827,5.827,11.727
1.818,-7.427,6.427,11.728
2.191,-6.936,6.436,11.73
2.727,-6.491,6.591,11.732
2.136,-5.255,5.855,11.823
2.727,-7.791,6.391,11.824
3.018,-7.927,7.327,11.826
4.145,-8.318,6.418,11.829
3.455,-7.482,6.082,11.831
3.284,-4.912,7.74,11.925
2.876,-4.968,7.76,11.926
3.468,-5.524,8.28,11.928
2.816,-4.888,7.76,11.929
1.804,-2.272,6.94,11.931
3.012,-5.616,8.22,11.997
3.248,-4.564,7.48,11.998
3.384,-5.212,6.94,12.0
3.844,-3.492,9.64,12.002
4.268,-4.924,7.78,12.003
4.418,-6.827,6.027,12.095
3.827,-6.791,6.291,12.096
3.482,-7.873,5.173,12.099
2.764,-7.145,6.345,12.222
2.755,-7.182,5.382,12.224
2.891,-8.436,5.936,12.225
2.827,-7.491,5.891,12.227
2.982,-8.273,5.473,12.229
3.87,-7.025,5.443,12.323
3.498,-6.745,5.234,12.333
3.74,-6.749,5.087,12.335
4.057,-7.142,5.481,12.336
4.247,-7.168,5.251,12.338
4.417,-7.492,4.994,12.34
4.106,-7.464,5.298,12.422
4.025,-7.211,5.158,12.424
3.832,-7.53,5.123,12.425
3.902,-7.255,5.366,12.427
4.066,-7.415,5.911,12.429
3.611,-7.528,4.896,12.523
3.274,-6.534,5.675,12.525
4.228,-7.721,4.691,12.527
4.547,-7.768,5.351,12.528
4.955,-7.887,5.615,12.53
4.151,-7.577,5.783,12.623
4.277,-7.943,6.408,12.624
5.338,-9.094,8.721,12.626
6.162,-10.906,11.479,12.628
3.413,-10.183,11.162,12.646
0.826,-9.463,5.832,12.722
-0.652,-10.185,-2.479,12.727
4.194,-10.039,-7.315,12.729
3.347,-5.657,-3.306,12.731
5.157,-1.666,-0.485,12.732
4.241,-2.363,1.674,12.823
0.168,-2.413,0.848,12.826
2.963,-1.828,-4.512,12.827
5.32,-3.478,-6.914,12.829
6.468,-3.713,-6.252,12.83
5.392,-2.102,-7.082,12.921
5.412,-1.647,-6.778,12.923
4.7,-2.0,-11.2,12.925
4.759,-2.41,-11.708,12.926
7.414,-3.771,-9.257,12.928
11.833,-0.402,-10.175,13.029
8.333,-1.978,-8.88,13.031
5.2,-2.2,-10.5,13.032
6.267,-3.027,-7.943,13.044
8.267,-3.339,-4.49,13.047
9.191,-0.691,-7.873,13.121
7.556,-1.144,-6.878,13.124
7.493,-1.571,-4.401,13.126
7.77,-1.403,-5.076,13.131
7.466,-1.943,-3.319,13.133
8.713,-3.369,-2.984,13.221
8.122,-3.378,-6.311,13.223
8.06,-3.204,-6.234,13.225
7.828,-1.217,-9.096,13.226
1.694,-4.227,-10.461,13.232
4.086,-3.529,-10.943,13.307
4.347,-4.863,-6.431,13.308
5.286,-4.729,-5.643,13.31
3.489,-5.0,-0.64,13.312
5.575,-5.4,0.064,13.314
8.333,-7.608,2.327,13.395
8.598,-7.624,0.18,13.397
9.59,-7.422,-3.202,13.414
9.359,-8.09,-2.508,13.417
6.164,-8.365,0.805,13.496
4.864,-7.625,-3.015,13.497
7.836,-8.675,-7.085,13.499
6.891,-7.136,-3.864,13.501
4.208,-6.745,-0.853,13.596
4.904,-6.922,-1.327,13.598
3.851,-6.331,-0.182,13.6
3.208,-5.945,-0.553,13.601
5.453,-3.792,5.255,13.603
6.992,-6.652,5.911,13.696
9.019,-11.159,-1.574,13.698
7.974,-8.974,-3.742,13.699
5.321,-7.221,1.074,13.701
6.182,-5.722,2.547,13.703
8.935,-7.675,-6.968,13.796
7.781,-6.441,-2.826,13.798
9.666,-8.006,-4.358,13.8
9.402,-7.762,-5.253,13.843
6.463,-6.663,-3.079,13.845
6.651,-6.291,-0.663,13.921
7.072,-5.712,0.511,13.923
7.287,-5.327,0.116,13.925
5.676,-4.336,2.505,13.926
3.553,-6.053,-1.416,13.931
5.938,-7.118,-4.847,13.998
6.541,-8.261,-5.326,14.0
5.115,-7.435,-2.768,14.002
7.685,-6.307,-3.252,14.007
7.052,-6.174,-1.419,14.008
6.478,-6.211,-1.778,14.01
7.07,-6.315,-3.104,14.12
7.659,-6.27,-3.493,14.122
7.722,-6.089,-3.222,14.128
7.341,-5.93,-2.907,14.129
7.03,-5.385,-3.496,14.223
7.296,-5.252,-3.463,14.224
7.574,-5.563,-3.541,14.236
7.437,-5.581,-3.57,14.238
6.944,-4.978,-2.344,14.24
7.378,-5.211,-2.178,14.243
6.827,-6.607,-1.584,14.322
6.763,-6.763,-2.379,14.323
6.915,-6.535,-1.668,14.325
6.865,-6.425,-1.032,14.326
7.038,-7.318,-3.047,14.328
7.323,-7.183,-4.179,14.421
7.451,-6.891,-2.963,14.423
7.786,-6.346,-0.958,14.425
6.68,-5.76,0.3,14.431
4.733,-5.813,-2.716,14.432
5.244,-6.604,-6.905,14.523
5.526,-6.026,-5.758,14.525
5.033,-4.413,-3.216,14.527
5.758,-4.358,-1.347,14.529
7.111,-4.011,2.137,14.53
5.455,-4.153,6.492,14.621
7.327,-6.196,5.278,14.623
6.145,-6.347,5.308,14.625
6.109,-6.896,5.597,14.626
6.927,-8.387,2.79,14.628
6.235,-5.941,5.224,14.724
6.52,-5.712,4.967,14.725
6.38,-6.088,3.233,14.727
9.012,-7.667,1.02,14.729
8.482,-7.249,5.469,14.734
7.349,-6.069,4.482,14.821
7.382,-6.549,2.069,14.823
5.024,-5.935,2.641,14.825
4.567,-6.52,3.012,14.826
4.978,-7.427,3.596,14.829
4.296,-8.178,2.327,14.922
6.382,-9.249,3.069,14.924
6.271,-11.143,1.886,14.925
6.684,-9.91,-0.294,14.927
5.739,-8.463,0.098,14.936
6.353,-8.992,2.255,15.022
7.739,-9.763,4.898,15.024
5.755,-7.553,4.892,15.029
3.486,-6.471,3.643,15.031
3.494,-5.116,5.09,15.033
1.571,-4.015,5.936,15.121
2.375,-7.712,3.884,15.123
5.585,-8.657,5.418,15.126
2.679,-6.461,8.396,15.128
2.294,-6.953,6.315,15.134
-2.092,-1.319,7.064,15.222
2.008,-8.119,1.464,15.223
9.509,-17.574,-2.97,15.23
9.288,-8.156,1.492,15.232
10.82,-6.69,2.467,15.234
8.066,-2.917,6.188,15.321
5.269,-1.016,7.562,15.323
3.525,-2.288,7.416,15.325
3.613,-3.593,7.045,15.337
3.421,-5.339,4.004,15.34
5.882,-6.713,-2.307,15.421
6.3,-7.76,-3.82,15.423
4.832,-6.532,-3.589,15.425
4.961,-7.201,-4.626,15.426
5.419,-6.616,-8.727,15.428
8.089,-2.944,-11.711,15.522
7.552,-2.693,-10.115,15.528
9.093,-2.93,-7.041,15.53
6.789,-3.444,-5.711,15.531
6.181,-3.574,-3.452,15.533
7.154,-4.988,-3.847,15.621
6.739,-4.835,-4.058,15.623
6.122,-5.475,-5.299,15.625
6.032,-5.213,-4.648,15.631
4.441,-4.643,-4.328,15.632
5.72,-4.222,-5.214,15.72
5.811,-4.538,-6.949,15.722
4.339,-5.135,-4.958,15.747
5.005,-5.469,-4.425,15.75
3.737,-4.052,-5.796,15.821
5.052,-2.893,-9.515,15.823
4.444,-2.722,-11.156,15.824
3.911,-2.156,-9.589,15.826
6.866,-0.631,-11.859,15.828
8.622,-2.411,-14.078,15.921
9.426,-1.296,-13.607,15.923
6.131,-3.359,-9.763,15.928
5.296,-6.021,-5.59,15.93
6.456,-6.129,-1.304,15.931
3.483,-5.803,3.121,16.021
3.398,-5.824,1.48,16.023
3.49,-7.222,0.598,16.024
5.798,-9.424,-0.32,16.026
8.812,-11.953,-6.478,16.029
6.814,-7.429,-0.657,16.121
4.631,-8.033,-0.494,16.123
7.769,-8.767,-9.006,16.134
5.488,-4.247,-4.422,16.137
3.98,-4.045,-0.204,16.139
3.733,-7.08,-1.245,16.221
3.933,-5.386,2.378,16.223
5.1,-5.918,3.871,16.224
2.575,-3.947,6.454,16.226
2.339,-4.094,5.148,16.228
4.781,-6.0,-0.266,16.321
2.964,-7.3,-3.375,16.323
3.436,-7.2,-6.025,16.324
1.508,-6.976,-6.695,16.326
-1.102,-5.322,-9.594,16.333
2.562,-0.509,-12.522,16.42
9.447,1.793,-11.467,16.422
6.873,2.59,-8.901,16.428
1.235,1.358,-11.24,16.429
1.358,1.494,-11.319,16.432
2.432,-0.98,-7.824,16.522
-1.252,-3.72,-7.436,16.534
-0.976,-0.06,-12.268,16.535
-0.264,-3.74,-10.052,16.537
1.1,-3.6,-10.7,16.547
1.303,3.233,-11.735,16.623
-0.686,3.952,-11.395,16.625
-3.027,-1.194,-12.488,16.627
0.955,0.81,-12.08,16.628
5.69,8.391,-11.018,16.633
4.515,8.763,-8.973,16.746
0.289,9.58,-11.84,16.752
-1.653,5.012,-11.8,16.754
-3.075,1.798,-7.567,16.755
-0.921,3.474,-6.279,16.757
-2.145,2.284,-9.015,16.822
-0.309,0.713,-9.011,16.823
9.245,-3.164,-2.145,16.825
14.0,-2.56,-2.92,16.827
9.882,1.245,-8.282,16.832
8.173,1.058,-7.093,16.846
4.742,-12.024,1.406,16.919
1.642,-9.224,1.306,16.921
-1.671,-6.393,4.49,16.928
-1.836,-8.065,2.405,16.931
1.607,-9.596,-4.474,17.023
5.119,-8.841,-13.085,17.024
4.83,-6.385,-11.596,17.026
-2.692,-5.976,-1.495,17.028
6.397,-5.739,-4.214,17.029
9.607,-2.775,-7.433,17.121
5.803,-1.561,-7.686,17.122
6.318,-0.911,-8.352,17.124
8.219,0.435,-8.813,17.126
9.72,1.581,-5.875,17.127
16.701,-5.381,-7.026,17.22
19.255,-8.415,-13.168,17.222
6.18,-5.76,-3.9,17.223
-1.798,-3.862,5.847,17.225
-3.468,-6.223,3.147,17.326
-0.055,-10.155,1.464,17.328
0.545,-8.918,7.118,17.33
-4.464,-8.355,7.155,17.331
0.951,-11.891,-6.063,17.333
3.161,-7.527,-8.006,17.421
3.624,-4.531,-8.622,17.423
1.673,-1.486,-11.549,17.429
-2.853,-3.572,-5.097,17.431
7.027,-2.814,-9.651,17.432
12.239,-4.573,-12.594,17.526
8.727,-3.108,-7.933,17.528
8.537,-3.496,-3.584,17.53
10.373,-4.492,-9.867,17.531
8.012,-6.565,-6.161,17.533
4.515,-8.037,-2.917,17.646
7.958,-8.468,-5.159,17.651
8.936,-10.093,-3.999,17.653
8.351,-10.13,-0.116,17.655
7.358,-8.768,-0.959,17.667
0.881,-6.141,1.674,17.743
-3.439,-2.401,2.674,17.745
-6.626,-0.774,-1.842,17.751
-4.513,0.273,-8.484,17.752
8.033,-3.133,-7.667,17.754
12.278,-10.924,-10.141,17.756
13.765,-6.682,-11.927,17.819
8.984,-3.28,-8.118,17.821
3.453,-6.316,-5.165,17.823
6.518,-9.898,-8.492,17.824
10.108,-10.71,-7.941,17.921
5.417,-10.386,3.151,17.922
3.309,-9.643,2.126,17.924
5.81,-11.352,-5.435,17.926
2.085,-8.824,-4.212,17.927
-1.038,-6.81,-2.281,18.02
-1.357,-7.314,-1.571,18.022
0.162,-8.01,-4.681,18.024
2.074,-7.671,-4.877,18.043
2.139,-7.895,-2.95,18.045
4.914,-7.243,-4.871,18.12
4.029,-8.386,-4.343,18.122
3.22,-8.176,-4.902,18.123
3.61,-7.588,-4.851,18.127
2.651,-8.639,-3.055,18.13
3.15,-8.196,-6.807,18.22
3.422,-7.879,-7.941,18.222
3.112,-3.66,-10.316,18.227
1.68,-1.3,-13.24,18.229
1.264,1.08,-18.352,18.23
3.438,5.836,-17.265,18.32
2.266,1.61,-14.308,18.322
2.786,-0.718,-13.314,18.324
2.825,0.381,-12.875,18.325
3.512,-0.46,-11.288,18.327
4.662,-1.309,-9.022,18.42
3.347,1.593,-7.767,18.422
1.182,1.831,-6.522,18.434
0.787,1.173,-6.667,18.436
1.58,2.06,-6.3,18.438
0.991,1.653,-5.117,18.521
0.77,1.736,-3.66,18.522
2.932,2.026,-2.936,18.53
1.383,1.906,0.966,18.532
-0.132,0.774,3.236,18.534
1.464,-1.175,0.881,18.62
6.606,-3.383,-6.329,18.622
7.967,-1.233,-12.333,18.624
11.605,-1.849,-17.871,18.631
12.144,-2.156,-18.822,18.633
8.05,1.447,-13.878,18.72
4.873,0.19,-10.101,18.726
2.904,-0.926,-9.021,18.728
2.994,1.739,-10.869,18.73
4.916,0.589,-6.537,18.731
4.021,-0.95,-5.268,18.827
1.535,-1.042,-4.24,18.839
0.418,-0.224,-5.848,18.84
0.934,2.864,-8.585,18.842
1.587,4.392,-11.528,18.844
6.316,4.089,-10.737,18.92
7.791,3.665,-11.449,18.922
2.663,3.062,-11.894,18.927
5.573,4.29,-11.301,18.929
3.778,1.389,-6.078,19.02
1.996,1.858,-12.956,19.022
4.92,-5.06,-3.1,19.024
-0.329,-8.524,3.789,19.025
-0.731,-5.396,4.211,19.03
0.392,-0.18,3.456,19.12
-4.168,-3.38,-11.124,19.122
17.92,9.3,-32.94,19.129
11.26,8.0,-28.32,19.131
-1.96,-11.2,-7.78,19.132
2.368,-11.561,-8.494,19.22
1.228,-1.66,-15.899,19.23
-1.102,-6.511,-10.246,19.232
0.776,-4.218,-12.409,19.234
4.26,-1.999,-14.405,19.235
6.751,-8.811,-7.924,19.32
4.922,-9.922,-5.789,19.322
6.989,-11.389,-7.756,19.324
2.264,-11.457,-7.285,19.328
1.657,-13.426,-6.04,19.33
2.304,-13.415,-4.823,19.422
2.458,-13.834,-2.551,19.423
1.264,-13.757,-2.385,19.425
1.306,-13.323,-3.734,19.427
0.524,-13.435,-4.024,19.434
0.987,-12.968,-0.252,19.52
-0.357,-12.341,-0.395,19.522
-1.127,-12.049,-1.741,19.524
-1.215,-10.996,-2.027,19.525
-1.643,-10.259,-4.705,19.527
-3.555,-8.825,-2.275,19.62
-1.41,-7.551,1.351,19.622
-1.32,-6.902,0.402,19.623
-1.357,-6.916,0.716,19.625
-1.245,-7.075,-0.425,19.627
-1.598,-6.71,-1.79,19.724
0.598,-5.99,-0.51,19.725
6.254,-6.538,1.685,19.727
2.808,-5.977,-2.831,19.728
-1.282,-6.376,-4.742,19.73
-4.1,-5.192,-5.738,19.82
-2.3,-5.977,-4.115,19.821
-0.2,-6.046,-1.869,19.823
0.7,-5.785,-1.977,19.825
0.8,-5.638,-1.808,19.826
0.3,-5.192,-3.138,19.92
-0.2,-5.146,-3.769,19.922
-0.2,-5.477,-4.015,19.923
0.2,-6.038,-5.008,19.925
1.6,-6.677,-4.515,19.937
4.274,-7.194,-2.616,20.021
4.378,-7.228,-3.463,20.023
5.063,-7.608,-2.998,20.025
5.629,-8.132,-3.119,20.03
4.88,-9.137,-4.575,20.032
3.174,-10.994,-6.716,20.121
1.519,-13.155,-8.213,20.123
0.665,-12.435,-3.547,20.126
0.322,-9.278,-6.616,20.127
-1.129,-9.329,-6.506,20.129
-1.239,-9.239,-3.908,20.22
-1.632,-8.996,-1.442,20.222
-0.472,-8.792,-1.396,20.223
1.231,-8.6,-0.354,20.225
2.138,-8.4,-1.492,20.226
0.646,-8.886,-2.488,20.32
-0.551,-8.741,-3.627,20.322
-1.82,-8.153,-4.422,20.327
-2.448,-8.077,-4.419,20.339
-2.194,-8.61,-4.377,20.342
-1.511,-7.847,-6.717,20.398
-1.153,-8.687,-6.479,20.4
-0.836,-8.466,-6.304,20.401
-0.477,-8.106,-5.866,20.403
-0.762,-8.009,-5.643,20.406
-0.879,-7.009,-6.264,20.521
-0.617,-7.321,-5.575,20.524
-0.27,-7.508,-5.455,20.526
-0.111,-7.947,-5.017,20.621
0.142,-7.76,-5.538,20.622
0.372,-7.368,-5.592,20.624
-0.013,-7.572,-4.47,20.626
0.051,-8.138,-3.874,20.632
1.042,-8.66,-3.638,20.633
2.42,-9.574,-1.609,20.719
3.584,-10.269,-0.771,20.721
6.458,-11.708,2.599,20.729
9.824,-12.932,6.384,20.74
8.838,-11.534,-0.992,20.742
3.117,-9.579,-8.625,20.82
3.264,-8.666,-7.304,20.822
2.679,-8.57,-6.881,20.824
1.94,-7.185,-6.091,20.825
1.04,-7.185,-5.491,20.827
0.304,-7.451,-5.194,20.921
-0.619,-7.345,-5.028,20.923
-0.492,-7.002,-5.689,20.924
0.692,-7.698,-6.611,20.926
0.862,-8.191,-5.957,20.928
0.788,-9.299,-2.391,21.02
0.792,-9.272,-2.076,21.021
0.838,-9.44,-1.618,21.027
0.766,-9.515,-1.42,21.029
0.743,-9.431,-1.649,21.03
0.894,-9.49,-2.123,21.126
0.919,-9.529,-2.532,21.127
0.949,-9.541,-2.627,21.139
0.635,-9.503,-2.626,21.141
0.843,-9.631,-2.649,21.143
1.085,-9.744,-2.453,21.22
1.377,-9.716,-1.729,21.225
1.765,-9.697,-0.974,21.226
1.997,-9.645,-0.061,21.229
2.269,-9.77,0.041,21.23
2.252,-9.715,2.521,21.32
1.968,-9.743,2.614,21.321
1.597,-9.77,2.658,21.323
1.429,-9.826,2.343,21.325
1.297,-9.97,1.358,21.326
1.116,-9.774,-1.594,21.419
1.094,-9.69,-1.823,21.421
0.999,-9.682,-1.854,21.422
0.992,-9.472,-1.776,21.424
0.88,-9.353,-1.722,21.426
1.034,-9.385,-1.88,21.52
1.272,-9.525,-1.998,21.531
1.449,-9.641,-1.927,21.533
1.585,-9.844,-1.753,21.536
1.68,-9.853,-1.722,21.538
1.68,-9.853,-1.722,21.62
1.631,-9.73,-1.541,21.621
1.601,-9.718,-1.446,21.623
1.553,-9.596,-1.266,21.63
1.523,-9.584,-1.171,21.631
1.394,-9.59,-1.423,21.72
1.329,-9.594,-1.548,21.721
1.265,-9.597,-1.674,21.723
1.329,-9.594,-1.548,21.725
1.394,-9.59,-1.423,21.732
1.435,-9.503,-1.526,21.82
1.359,-9.605,-1.643,21.821
1.283,-9.708,-1.76,21.823
1.218,-9.711,-1.886,21.825
1.283,-9.708,-1.76,21.826
1.377,-9.716,-1.729,21.92
1.359,-9.605,-1.643,21.921
1.359,-9.605,-1.643,21.923
1.329,-9.594,-1.548,21.924
1.329,-9.594,-1.548,21.926
1.341,-9.495,-1.557,22.02
1.234,-9.585,-1.58,22.021
1.083,-9.508,-2.06,22.023
1.278,-9.734,-2.075,22.025
1.638,-9.94,-1.618,22.032
0.719,-10.07,-0.179,22.12
0.596,-9.966,-0.364,22.121
0.383,-9.847,-0.589,22.123
0.347,-9.825,-0.498,22.124
0.292,-9.832,-0.628,22.131
0.225,-9.721,-0.683,22.219
0.315,-9.736,-0.643,22.22
0.591,-9.715,-0.76,22.226
1.051,-10.058,-0.934,22.228
1.191,-10.215,-1.06,22.32
1.717,-10.353,-1.811,22.322
2.449,-10.842,-3.166,22.327
3.402,-11.017,-0.868,22.329
3.983,-11.447,-0.089,22.33
4.921,-11.652,2.848,22.42
4.44,-11.284,4.649,22.422
5.294,-12.242,2.958,22.423
5.913,-13.475,1.959,22.425
5.206,-13.258,5.744,22.427
1.628,-14.04,6.601,22.519
-0.288,-10.953,11.4,22.525
-0.647,-9.288,12.9,22.527
-0.773,-6.69,13.267,22.529
1.186,-7.055,12.567,22.531
-2.755,-5.225,13.376,22.619
-2.027,-4.833,12.398,22.621
-1.155,-3.045,10.636,22.627
-0.536,-2.324,8.871,22.628
0.036,-1.816,7.149,22.657
-1.539,0.461,5.008,22.753
-0.616,1.184,3.943,22.755
0.043,2.543,3.531,22.757
0.331,2.731,2.914,22.758
0.61,2.61,3.298,22.761
0.386,3.157,3.229,22.858
0.962,4.519,3.076,22.86
0.743,4.629,4.014,22.862
-0.27,4.405,5.339,22.863
-0.537,4.629,5.474,22.865
0.811,5.356,4.489,22.917
0.637,5.285,4.963,22.919
0.441,5.904,6.459,22.921
0.626,6.53,7.274,22.923
0.433,6.567,7.167,23.021
0.819,6.893,6.681,23.022
0.993,6.563,6.907,23.024
1.004,6.419,7.396,23.026
1.326,6.93,7.274,23.037
1.478,6.989,7.022,23.04
1.352,6.659,6.948,23.119
1.341,6.404,7.159,23.121
1.407,6.637,7.493,23.123
1.441,7.004,7.559,23.124
1.259,6.796,7.441,23.126
1.456,6.978,7.244,23.219
1.481,6.807,7.419,23.221
1.281,6.907,7.719,23.222
1.181,6.907,7.619,23.224
1.396,6.881,7.504,23.226
1.344,6.722,7.356,23.32
1.233,6.467,7.467,23.321
1.248,6.541,7.652,23.328
1.196,6.381,7.504,23.33
1.248,6.441,7.152,23.331
1.341,6.404,7.159,23.419
1.341,6.404,7.159,23.421
1.385,6.526,7.215,23.443
1.378,6.489,7.122,23.445
1.396,6.281,7.204,23.447
1.263,6.515,7.337,23.53
1.285,6.626,7.615,23.532
1.315,6.674,7.485,23.533
1.315,6.674,7.485,23.538
-0.078,8.211,8.278,23.54
