vertical_Accel_x,vertical_Accel_y,vertical_Accel_z,accel_time_list
1.175,2.473,7.873,0.0
0.225,2.927,10.927,0.002
3.006,1.129,10.029,0.004
-3.267,5.967,10.667,0.006
2.445,1.625,8.825,0.102
0.012,3.859,9.459,0.104
-0.222,2.992,9.692,0.105
0.855,2.775,9.575,0.107
0.375,3.273,9.273,0.112
0.602,2.71,8.91,0.114
0.525,2.927,8.827,0.201
0.39,2.751,8.851,0.203
0.351,2.455,8.955,0.205
0.331,2.457,8.857,0.206
0.292,2.461,8.661,0.208
0.214,2.469,8.269,0.304
0.271,2.453,8.053,0.306
0.271,2.553,7.953,0.307
0.249,2.445,7.445,0.324
0.112,2.359,6.859,0.336
0.341,2.306,6.506,0.403
0.224,2.218,6.018,0.405
-0.322,1.092,5.492,0.406
-0.627,0.763,6.363,0.408
-1.261,0.796,6.796,0.41
-1.6,-0.9,6.7,0.504
-2.322,-1.578,6.084,0.506
-3.18,-3.62,7.196,0.507
-4.741,-4.459,8.488,0.509
-5.99,-5.21,8.798,0.511
-3.854,-7.928,8.365,0.601
-4.05,-6.659,9.418,0.603
-4.339,-6.132,9.641,0.604
-4.415,-6.179,8.487,0.606
-4.367,-6.472,7.179,0.607
-1.137,-7.824,6.673,0.701
-1.541,-7.894,6.182,0.702
-2.145,-7.663,5.69,0.704
-2.696,-7.531,5.392,0.714
-3.467,-7.845,5.135,0.716
0.299,-10.236,2.462,0.797
0.267,-11.367,2.567,0.799
0.325,-12.559,2.89,0.801
0.083,-13.151,2.914,0.802
-0.619,-13.024,2.738,0.804
0.894,-12.329,-4.471,0.898
1.071,-12.147,-5.153,0.9
1.09,-11.649,-4.751,0.902
2.632,-8.972,-7.091,1.002
2.579,-7.799,-8.066,1.003
2.179,-7.279,-8.926,1.005
2.5,-7.3,-8.6,1.007
3.353,-7.833,-7.144,1.008
3.337,-7.677,-6.659,1.01
3.489,-7.289,-6.263,1.101
3.384,-7.664,-5.755,1.103
3.184,-7.924,-5.575,1.104
2.847,-7.847,-5.116,1.114
2.558,-7.898,-5.233,1.116
2.147,-7.767,-5.556,1.119
1.879,-7.979,-5.826,1.2
1.553,-8.053,-6.184,1.201
1.589,-7.929,-6.243,1.206
1.716,-8.016,-6.005,1.208
1.004,-8.751,-4.994,1.312
1.008,-8.602,-5.189,1.314
0.892,-8.498,-5.111,1.315
0.738,-8.409,-4.943,1.317
0.713,-8.328,-4.83,1.319
0.596,-7.755,-5.778,1.4
0.772,-7.588,-5.748,1.402
0.761,-7.441,-5.838,1.404
0.813,-7.42,-5.921,1.405
0.896,-7.455,-5.878,1.407
0.928,-7.512,-5.752,1.5
0.97,-7.716,-5.537,1.502
1.002,-7.772,-5.411,1.512
1.085,-7.808,-5.368,1.519
1.054,-7.738,-5.25,1.52
1.158,-7.682,-5.171,1.6
1.231,-7.57,-5.219,1.602
1.251,-7.479,-5.183,1.604
1.354,-7.438,-5.35,1.605
1.427,-7.326,-5.397,1.607
1.596,-7.849,-4.806,1.7
1.596,-7.849,-4.806,1.702
1.566,-8.042,-4.851,1.707
1.681,-8.145,-4.928,1.709
1.721,-8.13,-5.019,1.71
1.721,-8.13,-5.019,1.8
1.745,-8.211,-5.132,1.802
1.821,-8.33,-5.119,1.804
2.015,-8.404,-5.377,1.805
2.145,-8.411,-5.432,1.807
2.679,-7.579,-6.526,1.9
2.653,-7.413,-6.704,1.909
2.463,-7.383,-6.761,1.911
2.279,-7.259,-6.786,1.912
2.247,-7.287,-6.696,1.914
2.121,-7.301,-6.634,2.0
2.058,-7.358,-6.453,2.003
2.026,-7.386,-6.362,2.004
1.932,-7.372,-6.391,2.006
1.932,-7.372,-6.391,2.008
1.905,-7.305,-6.268,2.1
1.868,-7.428,-6.209,2.101
1.774,-7.414,-6.238,2.103
1.774,-7.414,-6.238,2.105
1.774,-7.414,-6.238,2.106
1.742,-7.442,-6.147,2.2
1.737,-7.537,-6.179,2.202
1.832,-7.552,-6.151,2.203
1.8,-7.58,-6.06,2.205
1.895,-7.595,-6.032,2.208
1.219,-8.455,-5.072,2.304
1.285,-8.396,-4.923,2.305
1.391,-8.323,-4.864,2.313
1.391,-8.323,-4.864,2.314
1.351,-8.338,-4.774,2.316
1.381,-8.145,-4.728,2.4
1.472,-8.168,-4.692,2.402
1.436,-8.034,-4.796,2.407
1.526,-8.057,-4.76,2.409
1.487,-8.072,-4.67,2.41
1.562,-8.191,-4.657,2.501
1.508,-8.302,-4.589,2.502
1.496,-8.249,-4.806,2.504
1.525,-8.181,-5.113,2.506
1.434,-8.158,-5.149,2.507
1.434,-8.158,-5.149,2.602
1.434,-8.158,-5.149,2.604
1.434,-8.158,-5.149,2.611
1.474,-8.143,-5.24,2.612
1.474,-8.143,-5.24,2.622
1.474,-8.143,-5.24,2.7
1.474,-8.143,-5.24,2.702
1.423,-8.106,-5.366,2.708
1.502,-8.075,-5.547,2.71
1.502,-8.075,-5.547,2.711
1.462,-8.091,-5.457,2.799
1.447,-8.187,-5.479,2.801
1.447,-8.187,-5.479,2.803
1.408,-8.202,-5.389,2.804
2.026,-7.386,-6.362,2.9
2.026,-7.386,-6.362,2.902
2.032,-7.292,-6.331,2.903
2.032,-7.292,-6.331,2.905
2.032,-7.292,-6.331,2.907
1.383,-8.121,-5.275,2.975
1.394,-8.174,-5.058,2.977
1.379,-8.27,-5.081,2.985
1.379,-8.27,-5.081,2.986
1.379,-8.27,-5.081,2.997
1.404,-8.351,-5.194,3.074
1.389,-8.447,-5.217,3.075
1.494,-8.374,-5.158,3.077
1.509,-8.277,-5.136,3.079
1.47,-8.292,-5.045,3.174
1.56,-8.315,-5.009,3.176
1.43,-8.308,-4.955,3.178
1.43,-8.308,-4.955,3.179
1.34,-8.285,-4.991,3.185
1.355,-8.189,-4.968,3.287
1.355,-8.189,-4.968,3.288
1.264,-8.166,-5.004,3.29
1.355,-8.189,-4.968,3.293
1.355,-8.189,-4.968,3.294
1.355,-8.189,-4.968,3.375
1.34,-8.285,-4.991,3.377
1.379,-8.27,-5.081,3.378
1.289,-8.247,-5.117,3.38
1.274,-8.343,-5.14,3.39
1.198,-8.225,-5.153,3.475
1.328,-8.232,-5.208,3.477
1.343,-8.136,-5.185,3.478
1.434,-8.158,-5.149,3.48
1.525,-8.181,-5.113,3.482
1.485,-8.196,-5.023,3.575
1.525,-8.181,-5.113,3.577
1.509,-8.277,-5.136,3.584
1.509,-8.277,-5.136,3.586
1.509,-8.277,-5.136,3.587
1.474,-8.143,-5.24,3.675
1.474,-8.143,-5.24,3.677
1.343,-8.136,-5.185,3.683
1.383,-8.121,-5.275,3.684
1.343,-8.136,-5.185,3.686
1.358,-8.04,-5.162,3.829
1.343,-8.136,-5.185,3.831
1.268,-8.017,-5.198,3.832
1.213,-8.128,-5.13,3.843
1.174,-8.143,-5.04,3.844
1.004,-8.151,-4.894,3.924
0.898,-8.225,-4.953,3.926
0.838,-8.009,-4.943,3.931
0.853,-7.913,-4.921,3.933
0.802,-7.875,-5.047,3.935
0.802,-7.875,-5.047,3.936
0.857,-7.764,-5.115,3.938
0.857,-7.764,-5.115,4.001
0.821,-7.63,-5.219,4.002
0.796,-7.549,-5.106,4.004
0.757,-7.564,-5.015,4.006
1.147,-6.847,-5.616,4.1
0.989,-6.789,-5.763,4.101
0.926,-6.746,-5.882,4.103
0.837,-6.637,-5.879,4.105
0.811,-6.571,-5.757,4.106
0.822,-7.078,-4.816,4.2
0.741,-6.959,-4.912,4.211
0.72,-6.88,-4.796,4.212
0.778,-6.922,-4.584,4.214
0.622,-6.978,-4.316,4.215
0.678,-6.922,-4.084,4.3
0.58,-6.92,-4.104,4.301
0.518,-6.682,-4.276,4.303
0.412,-6.288,-4.218,4.311
0.159,-6.341,-4.488,4.313
0.098,-6.302,-4.18,4.402
0.1,-6.5,-3.7,4.404
-0.125,-7.025,-3.645,4.41
-0.38,-7.98,-3.996,4.412
-0.606,-8.406,-4.441,4.5
-1.045,-8.045,-4.249,4.501
-1.39,-7.59,-3.498,4.509
-1.518,-7.218,-2.824,4.51
-0.884,-7.784,-1.457,4.512
-1.21,-8.41,-0.402,4.606
-1.431,-8.031,-0.786,4.619
-1.247,-7.147,-2.129,4.621
-2.698,-6.698,-4.52,4.623
-2.557,-6.957,-4.231,4.624
-0.32,-8.202,1.098,4.7
1.19,-8.651,4.349,4.702
1.602,-9.51,3.19,4.709
-2.48,-10.498,-5.398,4.711
-3.055,-11.425,-10.325,4.713
-2.742,-12.582,-0.873,4.8
0.632,-12.188,7.029,4.802
1.774,-11.806,8.302,4.803
2.932,-12.588,1.329,4.805
3.632,-12.808,0.869,4.807
1.993,-12.663,0.834,4.905
2.404,-12.707,1.323,4.906
3.141,-13.247,0.613,4.909
3.727,-13.573,0.582,4.911
3.721,-13.512,0.797,4.913
4.179,-13.488,0.803,5.004
3.034,-16.81,-0.153,5.005
2.11,-14.068,-5.692,5.007
4.338,-12.017,-0.629,5.009
4.892,-13.086,-1.846,5.01
3.328,-9.225,1.449,5.099
4.475,-6.598,-1.188,5.101
5.338,-7.303,-2.717,5.103
4.095,-7.261,-1.267,5.11
3.35,-7.296,-3.477,5.111
3.688,-6.565,-4.239,5.199
4.31,-7.012,-3.951,5.2
6.141,-7.549,-5.304,5.202
7.445,-6.594,-6.224,5.209
6.51,-6.412,-3.851,5.211
7.157,-7.829,-1.786,5.299
6.712,-7.535,-1.861,5.301
7.988,-7.865,-4.439,5.303
7.786,-7.843,-7.929,5.304
6.173,-6.408,-4.367,5.314
5.178,-5.953,-2.688,5.4
6.373,-6.308,-3.567,5.402
6.11,-6.312,-4.151,5.403
6.002,-6.822,-3.91,5.405
6.945,-8.294,-5.524,5.407
4.592,-8.21,-2.459,5.476
4.896,-7.055,-1.08,5.479
7.284,-7.42,-4.518,5.481
6.498,-7.478,-3.29,5.482
4.473,-6.108,-0.467,5.484
4.358,-8.098,-0.764,5.573
4.678,-8.026,-0.001,5.575
4.902,-7.593,1.476,5.578
3.896,-8.652,1.678,5.7
3.49,-8.581,1.695,5.702
4.321,-8.962,0.77,5.703
2.432,-7.705,3.336,5.705
1.794,-7.429,3.417,5.706
2.517,-6.782,5.807,5.801
3.832,-8.478,5.725,5.803
3.687,-7.892,6.772,5.805
2.919,-7.569,7.297,5.81
3.286,-8.098,5.227,5.812
2.265,-6.542,4.74,5.814
1.879,-6.85,4.668,5.815
3.202,-9.687,4.29,5.899
1.951,-7.04,5.367,5.901
3.392,-8.059,3.796,5.908
4.004,-9.674,2.979,5.909
2.124,-7.23,3.166,5.911
3.413,-8.708,0.628,5.999
3.014,-9.702,1.473,6.0
2.833,-8.371,3.97,6.002
3.44,-8.819,4.429,6.004
4.393,-8.587,2.867,6.099
3.887,-7.873,2.933,6.101
4.342,-8.451,2.378,6.107
4.793,-8.387,2.267,6.12
6.364,-8.662,1.556,6.121
3.315,-6.695,4.618,6.201
4.142,-6.906,5.519,6.202
4.057,-8.501,4.336,6.204
3.551,-9.74,4.167,6.206
2.437,-9.238,6.894,6.207
2.315,-7.895,9.718,6.299
5.041,-15.112,6.674,6.301
4.441,-22.912,2.474,6.303
5.429,-22.097,1.591,6.304
3.354,-11.621,0.502,6.306
1.534,-4.678,-1.009,6.399
0.628,2.892,-8.357,6.401
-13.219,19.913,3.355,6.402
-4.571,6.681,9.668,6.404
19.216,-14.277,2.471,6.406
15.292,-16.317,0.927,6.477
0.882,2.045,11.582,6.479
4.14,-2.5,7.98,6.489
8.604,-11.909,4.044,6.49
0.305,-4.664,4.365,6.492
2.971,-5.336,1.28,6.572
3.639,-7.077,-1.517,6.574
4.398,-5.252,-2.339,6.575
3.658,-4.428,0.84,6.577
4.692,-4.676,-0.418,6.674
2.363,-4.171,-0.326,6.676
-1.507,-5.767,-3.453,6.677
-1.361,-7.91,-10.045,6.679
-0.181,-7.91,-13.305,6.681
-0.618,1.193,-15.928,6.774
3.471,2.918,-16.775,6.776
4.886,1.159,-12.988,6.778
5.193,0.179,-11.894,6.779
6.363,1.308,-12.482,6.781
3.049,-1.304,-8.788,6.874
3.588,0.501,-10.828,6.876
2.706,2.715,-12.049,6.886
2.57,-0.713,-9.107,6.887
3.44,-0.026,-8.515,6.903
1.602,2.022,-11.156,6.974
1.058,0.343,-9.515,6.976
3.274,4.317,-10.466,6.977
1.678,1.16,-9.679,6.979
3.739,1.025,-10.25,6.984
6.835,1.881,-9.038,7.074
8.563,1.497,-9.906,7.076
9.297,6.967,-14.965,7.077
12.339,16.125,-18.65,7.079
14.745,11.59,-11.82,7.082
10.744,15.878,-3.544,7.174
4.113,13.698,-5.195,7.181
-23.491,-7.609,-16.127,7.183
-35.344,-29.478,-15.156,7.184
-7.389,-6.256,-5.511,7.186
12.964,16.431,-16.403,7.274
2.327,1.148,-3.195,7.284
7.619,0.241,-7.204,7.285
9.371,-0.575,-7.382,7.287
5.9,1.4,-12.1,7.402
6.767,-1.133,-10.633,7.404
-0.967,-3.267,-11.167,7.406
-3.7,-4.8,-11.6,7.407
-4.633,-5.833,-12.833,7.409
-9.013,-2.593,-18.367,7.501
8.504,6.098,-22.252,7.503
6.335,3.632,-10.01,7.505
2.392,-4.896,-7.995,7.507
2.629,-0.314,-10.543,7.514
7.291,6.754,-14.857,7.516
7.74,3.68,-10.3,7.517
5.17,-3.271,-0.889,7.599
6.374,0.284,-6.135,7.601
6.073,2.695,-5.948,7.602
5.281,0.704,-5.241,7.604
1.675,-0.928,-4.922,7.618
6.167,2.263,-8.629,7.698
5.421,0.373,-7.332,7.7
5.457,-0.524,-8.063,7.701
4.222,-1.938,-7.319,7.703
3.497,1.034,-11.74,7.799
4.789,1.425,-12.347,7.801
5.773,-0.005,-10.448,7.802
5.113,0.053,-9.526,7.804
4.244,2.612,-11.424,7.806
3.761,-3.735,-9.988,7.9
2.492,-3.202,-9.582,7.902
4.231,-4.267,-6.394,7.903
4.771,-4.757,-4.086,7.905
6.355,-5.261,-5.049,7.911
6.187,-8.445,-2.081,7.999
4.976,-8.483,-2.231,8.004
4.001,-8.246,-2.285,8.006
1.498,-9.008,-0.03,8.008
4.009,-7.87,-0.58,8.018
5.757,-6.3,-5.702,8.099
7.657,-6.5,-7.002,8.1
5.334,-4.8,-6.381,8.107
5.583,-3.9,-3.709,8.109
6.253,-4.4,-4.715,8.11
6.926,-5.0,-2.308,8.199
6.915,-4.7,-7.247,8.201
8.883,-5.1,-5.409,8.202
4.74,-5.2,-0.711,8.205
5.909,-5.2,-2.617,8.224
6.932,-5.6,-5.138,8.299
5.674,-5.5,-6.592,8.3
6.166,-5.3,-3.719,8.302
6.26,-6.0,-3.189,8.304
5.908,-5.5,-6.974,8.306
6.492,-5.024,-7.505,8.399
6.567,-5.533,-7.167,8.4
6.294,-5.377,-6.99,8.402
5.795,-5.031,-7.275,8.412
5.487,-4.555,-5.281,8.413
5.48,-4.278,-4.686,8.498
6.594,-4.077,-5.69,8.506
6.142,-4.097,-6.713,8.508
5.286,-4.301,-4.796,8.509
5.248,-4.419,-4.523,8.511
6.123,-4.729,-6.184,8.599
6.669,-4.641,-6.437,8.6
6.269,-4.341,-5.337,8.605
6.469,-4.541,-4.737,8.607
6.504,-4.615,-5.24,8.608
7.229,-4.652,-6.694,8.674
7.697,-4.439,-7.745,8.675
7.325,-4.337,-6.654,8.677
6.36,-4.411,-5.757,8.683
6.191,-4.37,-4.92,8.685
6.329,-4.352,-4.894,8.773
6.218,-4.514,-3.844,8.777
6.1,-4.3,-4.5,8.787
6.294,-3.377,-6.49,8.796
6.515,-3.953,-6.489,8.873
7.647,-4.666,-7.338,8.876
7.529,-4.552,-5.694,8.877
5.305,-4.569,-3.225,8.879
5.956,-4.496,-5.117,8.974
7.542,-4.897,-7.013,8.975
6.971,-5.148,-5.406,8.977
6.041,-4.843,-3.828,8.978
6.305,-5.469,-2.525,8.985
7.625,-6.037,-1.454,9.099
6.525,-4.437,-6.954,9.102
6.239,-3.835,-7.758,9.111
7.188,-3.609,-7.566,9.112
8.553,-4.434,-5.062,9.114
7.135,-5.374,-2.003,9.202
6.075,-3.663,-2.946,9.204
6.748,-3.719,-4.123,9.206
7.884,-3.794,-8.026,9.223
5.41,-4.584,-4.865,9.225
5.617,-3.76,-6.859,9.227
4.511,-2.938,-8.449,9.228
4.994,1.115,-10.613,9.299
5.696,1.777,-10.709,9.302
3.983,0.006,-8.034,9.304
3.583,-0.694,-9.434,9.306
3.662,-1.811,-7.177,9.307
4.484,-0.21,-7.351,9.399
6.133,-0.167,-6.367,9.401
7.498,0.786,-5.931,9.402
8.018,1.024,-6.518,9.404
9.1,-3.5,-5.5,9.474
7.389,-7.809,-0.821,9.475
4.317,-6.506,-0.566,9.477
0.602,-6.038,-10.996,9.479
-21.321,-16.817,-1.443,9.481
7.522,-8.353,-36.312,9.576
17.733,-4.141,-39.363,9.586
6.418,1.902,-9.992,9.588
-2.598,-1.178,10.09,9.59
0.149,-6.312,6.69,9.676
7.694,-8.773,-0.361,9.678
6.388,-9.547,5.278,9.68
10.739,-9.535,1.288,9.683
10.631,-6.433,-3.994,9.686
3.491,-1.836,2.236,9.777
7.164,-6.345,-0.555,9.779
9.164,-8.585,-2.735,9.784
6.773,-5.529,3.069,9.786
6.645,-11.158,2.938,9.787
10.069,-12.767,-5.906,9.873
9.363,-7.141,-9.967,9.875
3.804,-5.051,-4.559,9.877
5.008,-4.702,-1.618,9.878
4.543,-5.786,-1.071,9.88
5.052,-8.515,-0.821,9.973
2.535,-8.954,1.605,9.986
1.989,-9.089,2.156,9.987
0.782,-7.318,3.355,9.989
0.859,-5.486,5.48,9.993
-1.368,-0.86,9.889,10.087
0.749,-0.445,10.917,10.095
3.221,-3.406,11.36,10.097
0.206,-1.432,5.398,10.098
0.77,-1.951,7.677,10.1
1.905,-2.037,10.058,10.19
2.152,-1.521,9.307,10.192
2.92,-2.5,9.06,10.195
3.499,-5.953,9.928,10.196
1.667,-5.332,9.381,10.198
1.2,-2.9,9.1,10.274
0.966,-2.484,8.709,10.277
0.708,-4.179,8.673,10.279
0.227,-2.832,8.961,10.28
0.131,-2.774,8.876,10.282
-0.237,-1.942,7.395,10.373
-0.798,-2.195,7.743,10.375
-1.834,-2.884,6.809,10.377
1.943,-8.042,8.635,10.378
1.738,-6.805,10.177,10.38
4.644,-5.392,8.14,10.499
4.724,-5.332,7.94,10.501
3.324,-4.132,8.24,10.506
4.324,-8.132,6.94,10.507
3.768,-7.924,8.18,10.509
2.952,-6.536,8.42,10.6
2.04,-4.22,8.3,10.601
3.328,-1.004,11.08,10.603
-0.62,4.66,5.4,10.605
6.54,-7.72,5.8,10.606
5.484,-8.512,6.54,10.609
7.54,-9.749,7.187,10.698
4.026,-6.466,7.725,10.706
1.925,-4.311,6.258,10.708
2.381,-5.053,5.94,10.718
4.492,-6.981,6.736,10.719
5.557,-7.342,6.181,10.804
5.647,-7.068,6.051,10.806
4.992,-5.981,6.036,10.808
3.408,-5.319,5.864,10.81
2.911,-6.228,6.296,10.812
2.527,-7.191,6.391,10.899
2.545,-7.118,6.118,10.901
2.464,-7.545,6.145,10.903
2.945,-7.018,7.418,10.91
1.782,-5.973,8.573,10.911
2.055,-6.382,10.682,10.997
1.1,-8.0,11.8,10.999
-0.255,-8.818,9.218,11.005
-2.191,-8.164,4.864,11.006
2.401,-9.91,-3.014,11.098
2.839,-7.294,-4.552,11.1
6.867,-2.467,3.667,11.107
4.657,-4.266,5.608,11.118
-1.411,-5.389,-2.144,11.12
1.533,-0.992,-14.173,11.198
5.733,-0.592,-16.073,11.2
4.241,-2.39,-7.692,11.201
3.382,-3.98,-5.584,11.203
4.514,-1.971,-9.257,11.205
4.547,1.375,-10.865,11.298
6.771,3.707,-14.59,11.3
8.82,3.302,-12.783,11.306
6.274,-1.863,-3.432,11.307
6.434,-3.357,-0.181,11.309
9.824,-3.594,-6.955,11.402
6.641,-5.39,1.208,11.405
8.684,-5.204,0.037,11.407
6.28,-5.855,-3.004,11.409
4.808,-4.098,-9.218,11.412
6.074,1.837,-13.532,11.473
6.722,0.222,-10.911,11.475
7.416,-0.138,-8.226,11.489
2.957,-2.034,-6.792,11.49
12.754,-2.865,-1.349,11.497
8.992,-6.2,-7.126,11.575
4.894,-5.2,-3.87,11.577
6.917,-5.7,-2.891,11.578
6.93,-6.0,1.106,11.58
5.648,-6.681,1.877,11.674
5.844,-6.096,2.017,11.676
3.069,-6.059,-3.837,11.677
6.077,-6.629,-11.816,11.679
6.787,-5.945,-12.381,11.687
4.405,-5.731,-8.225,11.798
4.384,-6.406,-5.226,11.804
5.234,-5.78,-4.318,11.806
3.244,-4.596,-4.483,11.809
2.944,-4.096,-5.583,11.811
8.202,-6.862,-0.853,11.899
8.457,-8.777,-0.221,11.901
7.807,-7.967,2.416,11.91
7.475,-7.955,-0.768,11.912
6.027,-8.007,-1.484,11.914
7.917,-7.997,-2.721,11.921
10.109,-6.2,-3.817,11.998
10.215,-5.0,-3.647,11.999
8.062,-4.2,-3.132,12.001
5.055,-3.5,-4.558,12.003
6.847,-4.1,-5.085,12.011
7.685,-4.9,-5.253,12.098
6.07,-4.8,-3.306,12.099
5.275,-5.3,-3.636,12.101
5.668,-5.7,-3.762,12.103
6.175,-6.2,-3.136,12.104
5.751,-6.0,-2.872,12.173
6.196,-6.3,-2.913,12.182
6.26,-6.3,-3.189,12.184
7.3,-6.1,-3.6,12.19
6.758,-6.0,-3.145,12.191
6.781,-4.732,-3.971,12.271
6.099,-4.146,-5.715,12.272
3.976,-2.917,-8.331,12.274
4.433,-2.467,-10.233,12.373
5.12,-3.122,-9.214,12.375
7.088,-3.509,-7.866,12.377
8.774,-3.71,-7.061,12.378
8.563,-3.472,-3.912,12.38
5.957,-5.751,-1.302,12.473
4.535,-5.726,-0.703,12.475
6.582,-6.214,-2.956,12.476
6.018,-7.686,-1.444,12.478
6.676,-7.383,-1.631,12.484
6.182,-6.473,0.373,12.573
6.918,-7.027,0.127,12.575
7.136,-8.315,-1.565,12.58
8.527,-7.611,-1.549,12.582
7.536,-7.575,-1.385,12.584
6.782,-6.913,1.293,12.689
4.536,-5.935,1.595,12.712
6.973,-6.509,0.709,12.715
5.473,-6.509,1.709,12.718
5.855,-6.482,1.082,12.72
6.382,-7.353,-0.787,12.798
7.673,-7.729,-0.831,12.803
8.018,-8.407,-1.033,12.805
7.8,-8.38,-0.16,12.806
6.227,-6.971,1.431,12.808
4.949,-7.495,2.707,12.874
4.963,-8.226,1.323,12.876
4.609,-8.791,-2.327,12.877
8.095,-10.649,-3.429,12.879
1.786,-7.359,1.998,12.881
4.445,-8.455,-0.136,12.882
2.359,-7.486,3.48,12.976
2.845,-7.155,3.064,12.979
4.004,-7.34,1.243,12.98
3.226,-7.163,1.532,12.982
6.318,-7.227,-0.773,13.08
8.109,-8.684,-2.376,13.083
10.464,-9.905,-1.475,13.086
9.973,-10.709,-2.191,13.089
7.873,-8.729,-2.331,13.094
6.073,-6.989,-1.151,13.203
6.3,-7.32,-0.74,13.205
6.618,-7.427,-1.173,13.206
6.645,-6.998,0.058,13.208
6.155,-7.202,1.042,13.21
5.62,-9.202,2.517,13.307
3.643,-8.334,4.692,13.309
-3.125,-3.647,7.954,13.311
-2.592,0.219,10.887,13.312
5.129,-6.193,0.59,13.314
6.89,-6.599,-1.759,13.316
11.126,-13.566,0.125,13.398
9.592,-9.281,4.836,13.399
8.951,-7.777,5.783,13.402
3.581,-3.253,6.64,13.414
3.577,-5.043,6.408,13.416
2.73,-5.875,7.757,13.498
5.328,-9.521,5.591,13.5
4.285,-7.962,7.372,13.502
0.753,-5.932,4.649,13.505
1.387,-1.817,8.438,13.51
3.084,-4.202,4.956,13.597
3.356,-5.378,3.844,13.599
4.611,-5.056,6.789,13.601
-0.889,-7.556,-0.611,13.607
-0.869,-8.196,0.089,13.608
3.102,-7.476,-5.28,13.697
0.014,-7.029,-5.357,13.699
-0.049,-7.888,-7.79,13.701
1.131,-8.633,-10.694,13.702
0.247,-8.337,-12.231,13.704
2.443,-1.595,-12.692,13.801
-0.817,-5.002,-10.143,13.803
-1.669,-1.309,-16.572,13.813
3.297,1.387,-14.558,13.815
2.233,-1.033,-9.367,13.816
5.076,5.56,-11.432,13.898
6.452,7.32,-13.464,13.903
4.032,1.12,-11.024,13.904
4.964,-0.86,-8.348,13.906
8.0,2.8,-7.0,13.908
6.4,-3.9,-5.2,13.974
6.052,-2.993,-2.015,13.976
5.244,-2.422,-1.456,13.981
4.874,-2.104,-1.493,13.982
4.807,-2.07,-2.159,13.984
2.27,-5.081,-2.763,14.071
4.622,-5.689,-3.778,14.073
6.174,-7.196,-0.393,14.075
5.33,-5.6,0.806,14.172
1.34,-6.6,3.289,14.174
2.309,-7.0,-4.617,14.176
-0.406,-7.2,-9.17,14.195
1.442,-7.2,-15.855,14.196
2.772,6.22,-14.704,14.297
1.344,0.04,-9.508,14.299
1.612,1.32,-11.584,14.3
4.208,4.78,-12.656,14.304
5.544,1.54,-6.408,14.306
0.312,-1.58,-6.984,14.399
1.86,-0.1,-8.02,14.4
4.704,3.24,-9.028,14.402
3.644,5.14,-10.108,14.404
-0.568,-1.38,-8.824,14.408
2.272,2.72,-11.204,14.41
5.833,-0.537,-11.916,14.501
4.533,0.298,-10.775,14.503
5.667,1.537,-16.384,14.505
6.667,1.908,-14.202,14.507
6.833,-1.943,-7.539,14.508
5.258,-5.103,-0.387,14.575
5.611,-5.5,-1.96,14.598
6.208,-5.4,-3.274,14.599
3.636,-7.9,-0.025,14.604
5.347,-7.8,-2.385,14.606
2.682,-6.133,2.753,14.695
-2.191,-4.724,4.344,14.697
-1.464,-7.375,1.515,14.698
1.491,-8.016,3.476,14.701
4.44,-7.5,-4.411,14.774
3.86,-4.5,-11.589,14.776
-0.891,-5.3,-10.517,14.778
-0.926,-3.0,-13.792,14.779
2.87,-2.8,-14.506,14.784
4.642,-4.8,-9.955,14.786
11.629,-1.101,-12.332,14.87
12.131,-0.708,-11.156,14.872
8.874,0.24,-5.254,14.879
9.337,-0.33,-5.227,14.881
4.451,-5.327,-0.192,14.972
3.565,-5.626,3.803,15.006
8.412,-3.891,-1.734,15.008
13.633,-2.767,-10.633,15.01
9.586,-3.401,-9.196,15.014
3.612,-6.853,-2.278,15.097
5.376,-8.594,0.655,15.099
7.643,-9.086,5.029,15.104
14.092,-9.298,-8.482,15.106
16.171,-9.443,-12.686,15.107
3.734,-8.985,7.989,15.174
-4.187,-1.483,10.562,15.175
-8.728,8.921,9.909,15.177
-3.07,1.425,1.857,15.179
-2.8,-6.4,2.5,15.18
-0.547,-9.132,3.549,15.182
-1.362,-6.794,5.821,15.28
-1.721,-4.698,6.674,15.282
-0.108,-7.381,1.236,15.283
6.421,-15.302,-1.574,15.285
7.47,-9.977,-2.732,15.371
6.081,-9.236,-3.908,15.373
11.062,-14.972,-12.415,15.375
6.536,-6.002,-0.006,15.381
2.949,-2.387,7.04,15.473
5.419,-9.264,3.408,15.475
6.383,-11.162,2.313,15.477
4.87,-11.177,4.168,15.478
1.955,-9.766,8.902,15.48
0.051,-13.088,4.81,15.599
-0.461,-14.535,-0.412,15.601
-0.31,-15.822,-8.302,15.608
6.112,-14.453,-14.478,15.61
10.002,-8.978,-16.31,15.611
0.435,-9.027,-7.722,15.699
0.637,-8.187,-4.877,15.701
-1.317,-1.777,-1.428,15.702
-5.177,-0.305,1.863,15.704
-1.032,-1.594,-0.588,15.706
-2.26,-2.628,6.391,15.724
0.641,-3.208,-1.186,15.726
-0.654,-5.063,-1.571,15.797
-2.949,-4.146,-1.643,15.799
-11.95,-14.918,-14.619,15.804
22.965,-45.039,24.99,15.806
7.298,13.628,-18.976,15.807
-5.919,-28.849,1.268,15.896
-1.496,-2.556,5.952,15.898
-0.282,-11.087,-1.431,15.899
1.112,-11.667,-2.045,15.901
1.004,-11.285,0.577,15.997
1.821,-11.617,-0.025,15.998
1.108,-10.57,1.055,16.0
2.783,-12.068,0.002,16.006
4.411,-12.255,2.232,16.011
8.573,-16.815,3.996,16.098
10.119,-16.145,3.387,16.099
11.162,-14.101,2.914,16.101
8.426,-12.794,5.616,16.112
-3.216,-14.929,-0.023,16.114
-10.302,-20.925,1.286,16.207
-2.629,-12.046,13.698,16.209
-2.341,-11.795,7.511,16.21
-4.876,-12.815,6.366,16.212
-5.957,-10.98,7.803,16.214
-9.522,-8.056,6.556,16.272
-9.382,-7.845,5.518,16.278
-8.348,-8.712,4.885,16.279
-7.302,-8.451,6.487,16.282
-5.972,-7.493,7.584,16.284
-1.993,-7.722,8.127,16.372
-1.367,-7.798,6.973,16.373
-0.904,-8.689,5.836,16.375
-1.051,-6.947,7.209,16.377
-0.711,-7.986,3.518,16.497
-0.56,-8.182,2.962,16.498
-2.085,-8.18,3.034,16.5
-0.391,-10.031,0.205,16.51
1.249,-10.504,1.356,16.512
1.565,-6.965,2.053,16.599
3.094,-4.994,1.859,16.6
2.655,-5.655,0.551,16.602
1.739,-5.439,0.008,16.604
1.288,-4.388,0.118,16.605
1.143,-3.943,-0.731,16.607
0.379,-3.409,-1.512,16.707
0.331,-2.892,-2.477,16.708
0.704,-2.856,-3.14,16.71
0.937,-3.126,-2.736,16.712
0.919,-3.413,-2.868,16.713
1.6,-3.08,-3.06,16.796
1.858,-3.598,-3.133,16.798
2.505,-4.425,-3.608,16.799
2.668,-5.368,-4.289,16.801
2.684,-6.604,-5.335,16.803
1.155,-7.572,-8.119,16.897
2.83,-9.619,-8.621,16.909
3.077,-11.636,-9.909,16.922
1.643,-10.34,-12.074,16.923
0.977,-7.736,-11.209,16.925
1.545,-7.728,-10.181,16.997
0.887,-9.279,-7.647,17.0
0.226,-10.042,-5.906,17.007
0.091,-9.157,-6.362,17.009
0.249,-8.506,-6.396,17.01
0.928,-8.532,-4.108,17.098
1.034,-7.258,-3.849,17.1
0.553,-6.613,-3.621,17.101
0.057,-6.664,-3.515,17.103
0.036,-7.034,-3.696,17.105
-1.547,-6.967,-4.007,17.172
-2.204,-7.511,-4.291,17.173
-3.484,-7.911,-6.331,17.18
-3.671,-7.678,-7.858,17.182
-2.747,-6.167,-8.107,17.183
-2.116,-4.489,-7.469,17.27
-2.638,-5.144,-3.424,17.272
-2.002,-6.556,-1.596,17.273
-1.537,-6.13,-5.184,17.372
-1.456,-6.608,-6.689,17.373
-2.068,-7.015,-6.692,17.375
-2.06,-7.544,-6.59,17.384
-1.886,-8.175,-6.447,17.386
-0.292,-10.205,-3.725,17.472
0.375,-10.784,-3.324,17.474
0.797,-10.811,-3.291,17.476
0.76,-10.5,-3.18,17.477
0.575,-10.984,-2.424,17.479
9.342,-13.982,2.073,17.572
7.653,-12.433,-1.344,17.573
8.321,-6.981,-9.894,17.575
5.474,-5.814,-7.538,17.577
3.521,-7.501,-7.534,17.578
1.622,-4.27,-10.465,17.675
1.404,-3.074,-10.313,17.693
0.257,-4.361,-9.07,17.695
-0.404,-5.626,-8.287,17.696
-0.43,-5.583,-8.009,17.698
-0.649,-7.094,-6.504,17.772
-0.54,-7.338,-6.242,17.775
-0.266,-7.496,-6.236,17.776
-0.16,-7.262,-6.558,17.778
-0.166,-7.096,-6.936,17.779
-0.166,-7.096,-6.936,17.872
-0.047,-7.083,-7.011,17.873
-0.055,-7.028,-6.881,17.875
-0.049,-7.194,-6.504,17.877
-0.043,-7.36,-6.126,17.878
0.944,-7.424,-5.862,17.971
1.078,-7.318,-6.109,17.973
1.067,-7.407,-6.153,17.974
1.089,-7.649,-6.124,17.976
1.311,-7.671,-6.136,17.979
1.679,-8.439,-5.046,18.096
1.863,-8.663,-4.721,18.098
2.058,-8.598,-4.633,18.104
2.279,-8.599,-4.666,18.106
2.279,-8.599,-4.666,18.107
2.289,-8.409,-4.603,18.198
2.205,-8.205,-4.568,18.2
1.953,-8.033,-5.044,18.202
1.768,-7.808,-5.369,18.203
1.526,-7.546,-5.482,18.211
1.368,-7.488,-5.629,18.213
1.332,-7.612,-5.571,18.296
1.258,-7.858,-5.453,18.298
1.442,-7.982,-5.427,18.299
1.468,-8.048,-5.549,18.301
1.563,-7.963,-5.821,18.303
1.621,-8.001,-6.034,18.395
1.716,-8.016,-6.005,18.397
1.847,-7.907,-6.036,18.399
1.853,-7.813,-6.004,18.409
1.947,-7.827,-5.976,18.41
2.042,-7.742,-6.247,18.496
2.174,-7.734,-5.978,18.502
2.047,-7.747,-5.916,18.504
2.021,-7.681,-5.794,18.506
1.921,-7.861,-5.554,18.507
1.921,-7.861,-5.554,18.597
1.884,-7.984,-5.495,18.599
1.879,-8.079,-5.526,18.604
1.689,-8.049,-5.583,18.605
1.695,-7.955,-5.552,18.607
1.663,-7.983,-5.461,18.671
1.537,-7.997,-5.399,18.673
1.726,-8.026,-5.342,18.675
1.795,-7.975,-5.192,18.676
1.826,-7.946,-5.282,18.678
1.732,-7.932,-5.311,18.769
1.763,-7.903,-5.401,18.773
1.732,-7.932,-5.311,18.783
1.732,-7.932,-5.311,18.875
1.637,-7.917,-5.339,18.877
1.542,-7.902,-5.367,18.879
1.574,-7.874,-5.458,18.88
1.547,-7.807,-5.336,18.882
1.611,-7.851,-5.217,18.996
1.605,-7.945,-5.248,18.998
1.626,-8.106,-5.402,18.999
1.811,-8.131,-5.677,19.001
1.879,-7.979,-5.826,19.003
1.974,-7.994,-5.798,19.098
2.042,-7.942,-5.647,19.1
2.053,-7.853,-5.284,19.102
1.953,-7.933,-5.344,19.103
1.889,-7.889,-5.463,19.105
1.921,-7.861,-5.554,19.106
1.858,-7.818,-5.673,19.108
1.858,-7.818,-5.673,19.196
1.853,-7.913,-5.704,19.206
1.758,-7.898,-5.733,19.207
1.758,-7.898,-5.733,19.209
1.726,-7.926,-5.642,19.211
1.632,-7.912,-5.671,19.295
1.637,-7.817,-5.639,19.3
1.642,-7.722,-5.607,19.302
1.542,-7.802,-5.667,19.304
1.605,-7.845,-5.548,19.396
1.568,-7.968,-5.489,19.398
1.505,-7.925,-5.608,19.399
1.537,-7.897,-5.699,19.401
1.6,-7.94,-5.58,19.403
1.726,-7.926,-5.642,19.475
1.795,-7.875,-5.492,19.478
1.795,-7.875,-5.492,19.485
1.8,-7.78,-5.46,19.488
1.768,-7.808,-5.369,19.49
1.858,-7.918,-5.373,19.595
1.816,-8.036,-5.645,19.623
2.089,-7.629,-5.643,19.624
2.821,-7.481,-5.894,19.626
1.904,-9.48,-4.02,19.701
3.078,-9.608,-4.292,19.703
6.195,-7.535,-6.612,19.707
7.311,-7.391,-8.497,19.709
8.363,-8.143,-9.581,19.711
9.074,-8.814,-10.538,19.717
5.267,-17.455,-3.812,19.794
3.391,-19.525,-2.666,19.796
0.907,-19.547,3.94,19.798
4.433,-17.345,12.012,19.799
3.678,-14.07,14.172,19.873
1.758,-17.661,10.135,19.874
-0.103,-15.235,8.526,19.876
-0.045,-12.797,6.561,19.878
-0.376,-9.673,6.011,19.883
0.19,-7.906,4.377,19.885
-3.592,-2.268,5.272,19.971
-2.217,-1.647,3.889,19.973
-1.789,-1.002,3.108,19.974
-0.508,-0.132,2.928,19.976
-0.8,0.78,3.04,20.071
-0.681,1.276,3.138,20.073
-0.129,2.566,3.183,20.074
0.19,2.882,3.541,20.076
0.61,3.798,3.699,20.08
2.097,4.301,4.467,20.171
2.118,4.427,4.676,20.173
2.493,4.702,5.334,20.174
2.947,5.018,5.673,20.176
3.204,5.332,5.744,20.178
2.155,6.665,4.948,20.297
2.412,7.036,5.163,20.299
2.684,7.251,5.305,20.301
2.815,7.446,5.462,20.302
2.968,7.504,5.644,20.308
3.129,7.386,5.657,20.471
3.382,7.247,5.873,20.472
3.318,6.953,5.527,20.474
3.544,6.932,5.619,20.476
3.974,7.321,5.409,20.477
3.453,6.658,5.782,20.479
3.491,6.874,5.736,20.538
3.631,6.892,5.723,20.539
3.644,6.932,5.919,20.544
3.718,6.853,5.827,20.546
3.578,6.834,5.841,20.548
5.047,6.231,5.863,20.594
4.849,6.21,6.088,20.596
4.916,6.137,6.096,20.597
4.931,6.294,6.167,20.698
4.706,6.339,5.973,20.7
4.639,6.412,5.965,20.706
4.582,6.384,6.18,20.708
4.514,6.457,6.171,20.71
4.571,6.486,5.957,20.722
3.456,7.168,5.781,20.797
3.568,7.304,5.644,20.798
3.384,7.051,5.605,20.8
3.655,7.265,5.748,20.801
3.536,7.109,5.788,20.807
3.564,6.991,5.912,20.809
3.63,7.089,5.99,20.873
3.511,6.933,6.03,20.875
3.709,7.226,6.264,20.877
3.569,7.208,6.277,20.878
