vertical_Accel_x,vertical_Accel_y,vertical_Accel_z,accel_time_list
0.184,6.596,-0.467,0.0
1.773,9.143,2.133,0.007
0.563,10.916,2.367,0.008
0.773,9.743,0.533,0.01
1.043,7.961,2.833,0.102
0.914,9.478,2.333,0.104
0.812,9.953,2.1,0.105
1.28,9.145,2.567,0.107
1.1,9.2,2.5,0.112
0.871,9.418,2.4,0.114
1.002,9.525,2.433,0.201
0.908,9.702,2.233,0.203
0.684,9.696,2.233,0.204
0.645,9.486,2.167,0.206
0.647,9.412,2.4,0.208
1.81,9.145,2.48,0.301
1.901,9.254,2.198,0.306
1.865,9.194,2.269,0.308
1.635,8.906,2.331,0.31
1.757,9.158,2.185,0.322
1.685,9.183,2.03,0.401
1.526,9.016,1.949,0.403
1.311,8.799,2.078,0.404
1.347,8.859,2.007,0.406
1.126,9.016,1.749,0.407
0.926,9.016,1.649,0.501
0.835,8.906,1.931,0.502
0.625,8.461,2.15,0.507
0.215,8.017,2.27,0.509
-0.255,7.75,2.511,0.511
-0.638,7.531,2.975,0.601
-1.113,7.492,3.126,0.602
-1.409,7.61,3.218,0.604
-2.586,7.429,3.643,0.611
-2.918,7.435,3.973,0.613
-1.609,6.348,6.174,0.701
-1.57,6.283,6.591,0.702
-1.448,6.213,6.857,0.704
-1.613,6.322,6.961,0.714
-1.983,6.304,7.352,0.725
-1.034,5.449,8.247,0.801
-0.934,5.149,8.847,0.803
-1.069,2.531,9.642,0.805
-1.376,2.024,9.556,0.806
0.534,1.689,9.602,0.901
0.434,1.389,9.702,0.903
0.298,1.232,9.894,0.904
-0.183,0.845,9.651,0.906
-0.311,-0.317,9.229,0.908
1.293,-2.363,8.843,1.004
0.887,-2.802,8.695,1.007
0.277,-3.634,8.314,1.009
0.897,-6.367,6.835,1.016
0.42,-6.518,6.636,1.018
1.627,-7.09,5.687,1.101
1.27,-7.599,5.365,1.102
0.889,-8.429,5.206,1.104
1.055,-10.217,4.522,1.119
0.646,-10.62,4.527,1.121
2.098,-11.047,0.76,1.203
2.619,-11.779,1.064,1.204
3.223,-12.685,0.445,1.206
4.019,-12.579,2.164,1.208
7.94,-11.711,6.868,1.209
6.353,-12.847,0.616,1.306
6.321,-13.399,-6.734,1.308
5.084,-11.876,-7.975,1.31
3.495,-10.165,-3.212,1.311
3.2,-10.4,-0.7,1.313
2.4,-10.64,-0.02,1.401
1.732,-10.008,-0.231,1.402
1.516,-9.364,0.155,1.404
0.122,-9.322,1.289,1.406
-1.114,-9.166,2.468,1.407
0.585,-8.219,4.236,1.503
0.562,-7.648,4.29,1.505
0.784,-7.595,4.201,1.514
0.969,-7.914,4.137,1.521
1.126,-8.043,4.451,1.523
1.348,-8.09,4.862,1.601
1.82,-8.3,5.24,1.602
2.199,-8.376,5.465,1.604
2.262,-8.448,5.69,1.606
2.194,-8.657,5.289,1.607
2.126,-8.943,4.951,1.7
2.128,-8.79,4.822,1.702
1.908,-8.69,4.782,1.707
1.814,-8.557,4.629,1.708
1.782,-8.548,4.33,1.711
1.814,-8.457,4.129,1.801
1.659,-8.276,4.185,1.803
1.66,-8.2,4.12,1.804
1.691,-8.186,3.983,1.806
1.722,-8.248,3.91,1.807
1.564,-8.295,4.161,1.901
1.532,-8.31,4.298,1.91
1.344,-8.295,4.621,1.912
1.25,-8.238,4.532,1.913
1.153,-8.333,4.573,1.915
0.801,-8.624,4.535,2.003
0.672,-8.71,4.278,2.005
1.15,-8.538,4.332,2.013
1.15,-8.538,4.332,2.015
1.125,-8.119,4.516,2.016
0.141,-7.563,5.333,2.126
0.027,-7.806,4.961,2.127
-0.492,-7.533,5.427,2.135
-0.531,-7.278,4.976,2.138
-1.024,-7.902,4.62,2.14
-1.222,-7.61,5.002,2.202
-1.249,-7.604,5.141,2.204
-1.294,-7.624,4.845,2.205
-1.135,-7.561,4.512,2.207
-1.055,-7.38,5.096,2.209
-1.261,-7.255,5.051,2.218
0.028,-6.891,5.36,2.299
-0.653,-7.056,5.266,2.301
-1.085,-7.614,5.223,2.303
-0.076,-8.22,5.098,2.304
-0.171,-8.157,5.314,2.4
-0.243,-7.814,5.229,2.402
-0.618,-7.535,5.027,2.409
-0.965,-7.812,5.139,2.411
-1.327,-8.361,5.694,2.501
0.112,-7.71,6.049,2.502
-0.518,-6.535,6.027,2.508
0.778,-5.698,6.31,2.51
-0.578,-6.502,5.39,2.512
-0.422,-6.898,3.91,2.607
-0.7,-6.7,4.7,2.609
-0.578,-6.902,4.49,2.61
-0.612,-6.69,4.551,2.612
0.51,-6.192,4.441,2.614
0.452,-6.235,3.21,2.701
0.586,-6.649,3.317,2.706
0.381,-6.338,3.276,2.708
0.314,-6.471,2.843,2.71
0.376,-7.328,2.635,2.711
0.648,-6.845,3.23,2.801
1.324,-6.332,3.245,2.802
0.062,-6.316,3.572,2.804
0.705,-6.65,4.661,2.805
0.571,-7.217,4.694,2.807
-1.329,-8.877,3.074,2.901
0.281,-8.938,4.576,2.902
-1.076,-9.252,5.805,2.904
0.352,-9.795,5.29,2.905
0.424,-9.992,6.125,2.907
0.719,-10.262,6.024,3.001
0.362,-10.136,5.832,3.002
-0.233,-9.927,5.513,3.008
-0.043,-10.186,5.771,3.01
0.076,-10.868,6.355,3.019
0.338,-11.024,6.548,3.1
0.2,-10.6,6.3,3.102
0.005,-10.33,5.901,3.104
-0.095,-10.67,6.021,3.105
0.329,-10.343,6.386,3.107
0.252,-10.095,6.69,3.2
-0.033,-10.227,5.413,3.202
-0.133,-9.907,5.653,3.204
0.038,-9.744,7.008,3.205
0.933,-9.593,6.847,3.207
1.395,-9.09,6.159,3.275
0.362,-9.476,5.952,3.276
-1.26,-10.3,5.32,3.278
-1.716,-10.636,5.151,3.28
-2.018,-11.018,3.945,3.282
-0.629,-12.143,0.589,3.399
-0.181,-11.794,1.821,3.401
0.146,-11.318,2.574,3.402
-0.463,-11.821,1.363,3.417
-0.065,-12.088,1.505,3.502
0.978,-11.207,2.142,3.503
0.662,-10.813,-0.242,3.505
0.292,-11.169,-0.932,3.507
0.753,-9.916,0.347,3.508
0.357,-9.581,1.663,3.51
0.987,-10.525,-0.819,3.6
1.589,-10.392,-0.802,3.602
1.443,-11.162,-3.209,3.604
0.574,-11.349,-2.138,3.605
0.789,-10.492,-1.702,3.613
2.648,-10.928,-2.288,3.701
2.239,-11.548,-2.965,3.702
2.213,-11.516,-3.422,3.704
3.09,-11.011,-3.852,3.705
3.419,-9.769,-2.47,3.707
1.602,-8.306,1.747,3.8
2.929,-8.086,0.857,3.802
2.898,-8.194,-0.047,3.812
1.665,-8.196,0.902,3.813
3.731,-7.492,0.604,3.815
3.105,-7.854,1.154,3.9
1.416,-8.531,1.631,3.902
4.032,-6.763,3.363,3.904
3.476,-6.671,4.189,3.912
2.444,-6.889,4.411,3.913
3.082,-7.924,2.756,4.0
3.011,-7.422,3.278,4.002
2.411,-6.622,3.978,4.003
3.422,-7.544,4.256,4.005
3.024,-7.329,4.511,4.007
0.426,-7.138,3.038,4.1
-0.128,-8.62,3.12,4.102
2.98,-9.386,1.886,4.104
3.976,-11.903,0.203,4.105
2.989,-12.222,0.322,4.107
3.844,-10.755,2.405,4.202
4.002,-9.627,2.013,4.212
2.864,-9.055,3.045,4.213
2.931,-9.264,3.516,4.215
2.433,-8.891,4.029,4.304
4.069,-7.536,3.484,4.306
3.447,-7.909,3.131,4.308
4.104,-11.055,1.725,4.309
0.896,-10.845,3.275,4.311
3.065,-11.696,-2.598,4.4
1.278,-8.233,1.484,4.407
1.647,-8.641,3.08,4.408
2.42,-10.161,3.069,4.41
2.777,-9.245,2.332,4.412
-1.153,-10.451,-0.506,4.5
0.476,-10.267,-2.669,4.502
2.347,-10.167,-5.093,4.504
1.169,-9.422,-2.738,4.505
1.011,-10.178,-4.522,4.507
-0.538,-11.356,-7.624,4.6
-0.267,-9.233,-2.467,4.61
1.48,-8.3,-0.36,4.611
4.762,-9.556,-2.724,4.613
4.038,-11.444,-4.876,4.615
1.629,-10.486,-3.157,4.7
0.257,-8.171,0.286,4.706
0.814,-8.043,2.271,4.708
2.357,-8.171,3.786,4.71
4.129,-7.386,3.243,4.711
1.872,-7.901,2.967,4.8
1.005,-11.868,-1.3,4.802
2.574,-8.423,2.133,4.803
3.449,-3.508,7.6,4.805
3.096,-8.955,3.267,4.807
3.699,-8.729,3.05,4.9
1.487,-8.479,2.544,4.902
-2.377,-13.301,-10.488,4.903
-2.378,-10.83,-2.539,4.905
-3.682,-9.347,0.259,4.907
0.214,-8.979,-7.241,4.999
-0.092,-8.295,-6.325,5.001
-1.153,-8.858,-6.542,5.003
-3.509,-10.268,-7.672,5.004
-2.484,-8.753,-8.047,5.006
2.224,-3.358,-11.292,5.1
2.781,-5.09,-9.698,5.102
1.3,-6.9,-6.8,5.103
0.871,-9.374,-6.477,5.105
10.71,-7.075,0.259,5.107
9.148,-8.996,5.455,5.2
10.533,-7.693,-2.853,5.202
13.181,-7.29,1.402,5.203
-1.238,-15.119,8.024,5.205
-10.933,-15.867,-8.067,5.207
10.903,-10.058,-11.697,5.3
-20.091,-18.073,-16.391,5.302
0.809,-9.273,-11.991,5.304
6.709,-6.773,-13.291,5.306
8.943,-5.025,-11.29,5.317
1.364,-10.034,-3.804,5.4
1.385,-8.304,-1.323,5.402
2.057,-7.336,-2.515,5.404
1.777,-9.106,-5.434,5.406
2.022,-10.038,0.569,5.412
1.992,-8.033,4.302,5.501
1.949,-7.667,4.363,5.51
-0.629,-6.9,4.982,5.511
7.761,-4.867,11.01,5.513
2.512,-7.9,5.347,5.514
1.857,-13.033,-0.839,5.604
3.7,-10.2,-0.5,5.607
0.198,-5.733,4.125,5.61
-0.341,-8.2,2.335,5.612
-0.888,-8.2,1.947,5.614
0.1,-9.4,3.8,5.7
0.865,-10.7,3.959,5.701
0.278,-10.667,5.48,5.703
-1.437,-8.433,6.584,5.713
0.806,-7.5,6.824,5.714
2.49,-6.967,7.927,5.803
1.361,-6.867,7.51,5.818
0.998,-7.633,5.625,5.821
-1.878,-10.733,1.72,5.823
0.322,-13.367,-4.584,5.9
3.618,-8.055,-2.378,5.901
3.35,-9.102,-0.518,5.903
3.291,-9.964,1.221,5.905
2.159,-8.838,1.361,5.906
0.82,-9.779,0.187,6.0
0.322,-9.587,0.116,6.001
1.259,-9.438,0.561,6.003
3.005,-9.62,0.922,6.005
2.846,-9.082,1.66,6.008
2.325,-8.399,1.809,6.104
1.328,-9.811,0.902,6.105
1.196,-9.884,0.643,6.107
2.288,-10.152,1.128,6.119
3.286,-10.945,0.999,6.12
4.367,-11.493,-0.453,6.201
5.289,-13.891,-3.904,6.204
4.522,-16.318,-7.891,6.206
2.733,-14.547,-6.827,6.208
1.289,-11.471,-3.464,6.21
1.0,-7.76,0.82,6.3
-0.46,-5.052,-0.236,6.301
-0.04,-7.708,-3.944,6.303
2.36,-9.948,-6.264,6.305
1.18,-9.164,-4.052,6.309
-0.606,-5.903,1.929,6.4
-1.221,-1.31,4.638,6.401
-1.85,-1.625,5.781,6.403
-2.095,-4.048,7.71,6.405
-1.931,-5.949,9.182,6.406
-2.393,-3.755,12.491,6.5
-0.672,-3.85,12.49,6.501
-3.536,-6.925,7.545,6.512
-4.718,-1.313,7.723,6.513
-3.862,0.586,9.203,6.515
-0.834,-3.532,9.013,6.599
1.477,-5.953,8.921,6.601
2.726,-6.751,8.24,6.602
-0.585,-3.93,8.232,6.604
-2.557,-5.485,8.434,6.605
6.668,-15.475,3.513,6.699
12.309,-17.566,-2.05,6.701
6.055,-10.667,-1.114,6.707
2.28,-7.833,1.655,6.709
0.201,-8.561,-0.367,6.71
0.639,-9.134,-0.167,6.809
1.446,-8.424,2.9,6.81
2.54,-7.495,2.267,6.812
2.537,-7.812,4.767,6.814
4.792,-10.576,1.512,6.816
2.544,-11.496,-1.802,6.9
1.744,-11.076,0.138,6.92
-0.033,-11.013,-1.093,6.921
0.778,-8.962,-0.569,6.923
0.267,-9.133,0.567,6.925
1.767,-11.253,0.227,7.0
0.011,-10.449,0.024,7.002
0.033,-9.447,-1.127,7.003
-0.167,-10.427,-3.487,7.005
1.589,-9.871,-3.264,7.007
3.761,-10.359,-3.138,7.099
2.955,-10.776,0.195,7.101
2.251,-11.021,-1.983,7.102
3.925,-8.447,0.814,7.104
2.892,-10.189,-2.756,7.106
1.889,-9.811,0.156,7.199
1.444,-8.556,2.778,7.201
2.089,-10.031,0.116,7.202
3.2,-9.56,-1.92,7.204
3.456,-8.924,-3.638,7.206
4.1,-9.76,-1.18,7.303
3.44,-8.672,1.604,7.304
3.7,-8.2,2.9,7.306
4.26,-7.708,3.056,7.308
6.641,-8.0,2.465,7.309
4.478,-5.596,5.427,7.399
0.904,-5.573,4.222,7.407
-0.292,-6.447,5.945,7.41
-2.188,-6.32,6.167,7.411
-5.747,-8.955,6.192,7.501
-5.063,-8.161,6.802,7.507
-1.788,-6.22,6.867,7.509
0.514,-8.257,5.529,7.51
0.963,-5.439,6.898,7.512
0.911,-9.553,3.613,7.599
0.082,-15.396,-3.901,7.601
0.971,-13.343,-2.614,7.603
-1.527,-12.068,-1.033,7.604
1.549,-11.537,0.859,7.606
11.11,3.567,14.173,7.699
6.676,-6.1,5.506,7.701
3.676,-22.8,-9.894,7.703
0.422,-11.433,-0.98,7.704
-2.378,-6.133,6.52,7.706
0.646,-9.617,8.475,7.8
-0.253,-11.502,3.403,7.802
7.464,-9.235,6.202,7.809
1.585,1.194,9.513,7.811
3.074,-1.368,6.736,7.813
3.014,-5.829,7.043,7.9
3.499,-6.005,7.864,7.901
3.004,-1.181,9.545,7.907
0.793,-3.633,9.447,7.909
-1.144,-2.719,8.935,7.911
-4.389,2.423,7.686,7.999
-5.553,0.127,5.933,8.001
-10.876,0.581,-1.738,8.003
-0.731,12.737,18.914,8.004
29.18,-16.74,17.0,8.014
14.708,-15.231,16.077,8.105
-4.785,9.038,10.554,8.107
-7.708,6.431,10.123,8.109
-5.246,1.985,10.538,8.111
-2.362,0.546,10.885,8.112
3.744,-6.949,8.469,8.199
3.411,-8.262,5.942,8.201
2.067,-3.813,5.473,8.202
0.389,-0.698,5.338,8.208
-3.678,-5.024,3.884,8.21
-0.239,-8.743,0.899,8.299
-0.426,-9.397,2.276,8.3
1.36,-6.838,8.567,8.304
2.524,-8.273,9.963,8.306
2.2,-15.2,-0.8,8.308
4.183,-9.733,2.828,8.399
0.519,-9.976,-1.965,8.401
2.215,-12.458,-1.491,8.402
5.855,-15.62,-0.858,8.414
6.119,-12.376,0.035,8.416
-0.313,-3.234,7.768,8.501
-3.015,-0.606,9.513,8.509
-0.277,-7.804,5.709,8.511
1.228,-11.36,3.219,8.512
0.933,-2.307,8.687,8.514
0.27,2.108,9.995,8.599
1.432,-2.902,11.176,8.601
-5.088,-2.542,10.176,8.602
2.657,3.314,10.429,8.609
3.231,-4.723,9.408,8.61
2.738,2.746,7.485,8.7
-2.662,6.146,9.385,8.702
-2.577,-6.792,12.431,8.708
1.108,-3.131,10.577,8.709
-1.969,5.177,9.208,8.711
-1.985,1.938,10.554,8.799
-1.046,1.185,9.538,8.807
0.046,3.615,8.862,8.819
-0.769,3.977,8.608,8.822
-2.431,2.923,7.992,8.824
-0.081,-1.657,8.56,8.899
-0.617,-3.618,8.206,8.901
-1.731,-6.488,7.744,8.902
-0.907,-8.335,7.769,8.904
-0.944,-8.562,6.244,8.91
-1.474,-10.457,1.822,9.003
-1.1,-12.4,-0.1,9.005
-0.174,-12.357,-0.078,9.007
0.797,-9.988,1.607,9.009
0.25,-10.698,2.818,9.01
-1.474,-11.557,4.022,9.098
-0.524,-10.968,6.155,9.1
-1.133,-9.206,8.569,9.102
-0.988,-9.31,8.849,9.103
-0.963,-9.531,8.647,9.199
-1.09,-9.492,8.441,9.201
-1.457,-9.286,8.171,9.214
-1.659,-9.567,7.563,9.216
-1.651,-9.641,7.496,9.218
-1.58,-9.484,7.482,9.302
-1.418,-9.235,7.527,9.306
-1.188,-8.91,7.349,9.31
-1.171,-9.057,7.214,9.312
-1.116,-8.753,7.335,9.314
-0.886,-8.429,7.157,9.399
-0.602,-8.382,6.992,9.401
-0.592,-8.373,7.133,9.402
0.658,-7.576,7.465,9.404
0.662,-7.297,7.285,9.406
1.307,-6.333,7.918,9.499
1.289,-6.251,7.973,9.501
1.256,-6.204,7.891,9.502
1.225,-6.215,8.264,9.504
0.947,-6.313,8.318,9.506
-0.735,-7.688,6.961,9.603
-0.669,-7.376,7.222,9.615
-0.727,-7.361,7.794,9.618
-1.071,-7.557,8.114,9.62
-1.153,-7.722,7.988,9.622
-1.184,-7.747,7.565,9.7
-1.298,-7.618,7.708,9.702
-1.331,-7.324,7.978,9.704
-1.331,-7.324,7.978,9.706
-1.147,-7.878,7.712,9.707
-1.139,-7.951,7.645,9.799
-0.953,-7.422,7.388,9.8
-0.786,-7.329,7.157,9.802
-0.69,-7.392,6.941,9.804
-0.559,-7.167,6.563,9.805
-0.314,-7.071,6.043,9.899
-0.078,-6.902,5.59,9.901
0.178,-6.798,5.21,9.903
0.433,-6.694,4.831,9.904
0.492,-6.627,4.467,9.906
-0.229,-6.096,4.344,9.998
0.055,-5.869,4.125,10.0
0.312,-6.164,3.741,10.001
0.47,-6.584,3.649,10.003
-0.21,-6.559,3.492,10.008
0.489,-6.054,4.244,10.105
0.7,-6.72,4.04,10.108
1.242,-7.905,3.863,10.111
1.063,-8.258,4.095,10.113
1.026,-7.976,4.409,10.114
0.79,-7.341,5.683,10.199
1.249,-8.119,5.839,10.2
1.461,-8.552,6.005,10.202
1.954,-8.842,6.184,10.204
2.025,-8.853,6.306,10.205
0.385,-7.47,8.168,10.299
0.847,-6.694,8.457,10.3
1.096,-5.791,8.577,10.306
1.691,-5.483,8.353,10.308
2.626,-5.551,7.84,10.32
0.586,-4.743,8.871,10.399
1.006,-5.183,8.971,10.4
1.211,-4.266,8.843,10.402
1.29,-2.795,8.881,10.404
1.791,-2.326,9.143,10.405
0.116,-0.58,9.988,10.499
0.304,-0.32,10.072,10.501
0.168,0.16,9.724,10.503
0.66,1.3,9.38,10.504
-1.119,5.062,7.765,10.512
-2.622,5.11,7.698,10.599
-2.288,4.649,7.51,10.6
-1.843,5.329,6.314,10.602
-1.008,6.867,5.727,10.604
0.19,7.234,4.775,10.606
-1.063,8.236,3.513,10.699
-0.809,8.116,3.847,10.7
-0.533,8.106,3.064,10.702
-0.056,8.295,2.68,10.714
0.061,8.447,2.796,10.717
0.272,8.519,1.96,10.853
0.46,8.651,2.126,10.855
0.67,8.474,1.787,10.857
0.796,8.311,1.655,10.858
1.064,8.54,1.17,10.925
1.287,8.632,0.966,10.927
1.287,8.532,1.166,10.928
1.153,8.417,1.409,10.93
1.26,8.951,1.226,10.932
0.921,8.447,0.923,10.999
1.328,8.381,1.24,11.0
1.491,9.021,1.511,11.002
1.183,9.143,1.521,11.003
1.223,9.091,1.396,11.005
1.663,9.086,0.069,11.098
1.686,9.371,0.157,11.107
1.701,9.562,0.216,11.109
1.702,9.724,0.032,11.12
1.736,9.652,-0.085,11.122
1.554,9.529,0.023,11.199
1.603,9.486,0.149,11.201
1.653,9.767,-0.093,11.202
1.689,9.857,-0.394,11.204
1.556,9.852,-0.345,11.205
1.555,9.69,-0.161,11.299
1.549,9.757,-0.374,11.305
1.696,9.952,-0.365,11.306
1.522,9.924,-0.228,11.308
1.514,9.829,-0.257,11.31
1.556,9.852,-0.345,11.398
1.424,9.848,-0.295,11.4
1.39,9.919,-0.178,11.402
1.276,9.652,-0.305,11.404
1.416,9.752,-0.325,11.405
1.416,9.752,-0.325,11.499
1.374,9.729,-0.237,11.5
1.416,9.752,-0.325,11.512
1.507,9.733,-0.287,11.514
1.45,9.681,-0.442,11.516
1.507,9.733,-0.287,11.608
1.43,9.781,-0.082,11.612
1.367,9.633,-0.267,11.614
1.499,9.638,-0.316,11.616
1.491,9.543,-0.346,11.618
