accel_time_list,accel_x_list,accel_y_list,accel_z_list
0.0,2.3,4.5,8.4
0.002,1.4,5.4,8.4
0.004,0.7,4.5,8.6
0.101,2.0,4.4,8.5
0.103,2.1,6.4,8.4
0.105,2.6,6.3,8.3
0.106,2.2,5.6,8.5
0.108,1.4,4.8,8.1
0.11,1.8,4.4,8.1
0.2,1.7,5.1,7.8
0.202,1.5,5.1,7.6
0.204,1.5,5.3,7.8
0.205,1.3,5.2,7.9
0.207,0.9,5.0,8.3
0.3,0.8,5.3,8.5
0.302,0.6,5.3,8.7
0.303,0.2,5.1,9.1
0.305,0.1,5.3,8.8
0.31,-0.3,4.9,9.0
0.4,-0.5,4.8,8.8
0.402,0.3,5.0,9.1
0.404,-0.3,4.8,8.8
0.405,-0.2,4.9,8.4
0.407,0.2,5.0,8.4
0.5,-0.1,4.9,8.1
0.505,0.5,5.1,7.9
0.508,0.3,4.9,8.0
0.51,-0.0,4.8,7.8
0.511,0.4,5.0,7.8
0.575,0.5,5.1,8.0
0.577,0.2,5.2,7.9
0.579,0.6,5.4,8.3
0.58,0.6,5.4,8.3
0.582,0.5,5.3,8.5
0.698,0.0,5.1,8.5
0.7,0.3,5.0,8.8
0.701,0.1,4.9,8.8
0.703,0.1,4.9,8.9
0.809,0.1,5.1,8.8
0.811,-0.3,4.8,8.6
0.812,-0.2,5.1,8.8
0.814,0.2,5.4,8.7
0.816,0.1,5.4,8.5
0.818,-0.1,5.1,8.3
0.906,-0.1,5.0,8.4
0.908,-0.1,5.0,8.2
0.909,0.1,5.1,8.3
0.911,0.1,4.9,8.3
0.912,0.2,4.9,8.4
1.005,0.3,4.9,8.1
1.006,0.2,4.8,8.0
1.008,0.1,4.7,7.8
1.01,0.3,4.8,7.2
1.011,1.1,5.3,6.7
1.1,1.7,6.3,5.7
1.102,1.8,6.5,4.5
1.104,0.5,6.7,4.4
1.115,-3.3,10.4,4.9
1.125,-3.6,5.5,3.4
1.202,2.9,-0.1,2.2
1.203,-0.4,-0.2,2.1
1.208,-3.3,-0.3,1.2
1.21,-5.6,-0.3,1.0
1.212,-6.3,-2.3,0.9
1.3,-5.9,-6.9,0.8
1.302,-6.7,-7.8,2.0
1.303,-8.0,-5.4,3.8
1.305,-9.3,-5.0,3.2
1.307,-10.2,-5.7,1.8
1.379,-11.0,-6.2,0.1
1.385,-13.0,-6.9,-0.9
1.387,-15.1,-6.2,-2.5
1.388,-15.4,-6.1,-4.5
1.39,-16.4,-7.5,-6.4
1.498,-17.3,-10.3,-7.1
1.499,-16.9,-11.2,-6.1
1.511,-16.7,-11.3,-5.0
1.601,-16.2,-11.8,-4.7
1.603,-14.3,-11.4,-3.8
1.611,-14.3,-3.4,5.5
1.613,-13.3,-9.1,-16.2
1.617,-7.5,-15.1,5.0
1.62,-9.5,-0.6,-1.6
1.7,-12.6,-1.3,-0.3
1.706,-10.8,-5.6,-3.5
1.707,-8.2,-6.6,-3.1
1.709,-8.1,-5.6,-2.8
1.711,-8.9,-5.0,-2.5
1.712,-8.5,-4.9,-2.0
1.799,-8.1,-5.3,-1.3
1.801,-8.6,-5.6,-0.7
1.802,-9.0,-5.1,-0.6
1.808,-9.2,-4.5,-0.5
1.9,-9.6,-4.3,-0.7
1.902,-10.0,-3.9,-0.8
1.914,-10.4,-3.5,0.2
1.916,-10.5,-2.6,0.5
1.918,-11.2,-1.0,1.2
2.0,-12.1,0.1,2.6
2.01,-10.3,1.0,3.1
2.011,-9.9,-0.0,2.3
2.013,-9.8,-2.0,1.2
2.015,-9.9,-3.2,0.1
2.101,-10.3,-4.3,-0.5
2.102,-9.6,-3.9,-0.8
2.104,-9.0,-3.3,-1.0
2.11,-9.2,-3.0,-1.2
2.112,-9.5,-3.1,-1.5
2.2,-9.4,-3.0,-1.4
2.202,-9.3,-2.9,-1.2
2.208,-9.4,-2.8,-0.8
2.209,-9.5,-2.6,-0.6
2.211,-9.6,-2.3,-0.4
2.3,-9.4,-2.1,-0.3
2.322,-9.2,-2.1,0.1
2.324,-9.1,-2.3,0.2
2.326,-9.0,-2.5,0.3
2.327,-8.9,-2.6,0.3
2.4,-8.8,-2.6,0.3
2.402,-8.8,-2.9,0.3
2.407,-8.8,-3.3,0.5
2.408,-8.9,-3.8,0.5
2.41,-9.2,-4.4,0.5
2.525,-9.5,-4.6,0.5
2.527,-9.7,-4.8,0.4
2.528,-9.7,-5.2,0.4
2.53,-9.8,-5.8,0.2
2.532,-9.8,-5.9,-0.0
2.601,-9.4,-5.8,-0.0
2.603,-8.9,-4.7,-2.7
2.605,-9.7,-5.2,-2.4
2.612,-10.0,-7.5,1.6
2.614,-9.3,-7.9,3.0
2.626,-8.4,-9.3,2.8
2.699,-7.0,-8.3,4.7
2.7,-6.2,-7.3,3.7
2.702,-5.2,-9.4,1.9
2.704,-4.4,-9.9,1.7
2.799,-3.3,-9.3,1.3
2.807,-2.5,-8.8,0.6
2.809,-2.2,-9.2,0.1
2.81,-2.0,-11.3,-0.5
2.812,-2.3,-13.5,-1.2
2.9,-3.3,-12.9,-1.0
2.902,-3.7,-14.0,-1.3
2.903,-3.8,-17.4,-1.8
2.909,-5.3,-18.4,-1.7
2.911,-6.0,-15.8,-1.7
3.0,-5.3,-13.7,-1.2
3.002,-4.1,-12.5,-1.3
3.003,-5.8,-9.5,-0.9
3.005,-6.8,-6.6,1.5
3.026,-6.3,-3.1,2.3
3.1,-4.9,-1.1,2.2
3.102,-3.6,-0.8,1.9
3.104,-3.3,-0.6,1.5
3.105,-2.9,0.2,1.3
3.107,-2.5,0.9,1.4
3.2,-2.6,0.3,0.8
3.201,-3.7,-0.2,-1.1
3.203,-5.2,-0.9,-1.8
3.209,-6.6,-7.7,1.1
3.211,-7.6,-14.9,2.5
3.3,-7.1,-18.4,5.6
3.302,-6.4,-16.8,10.2
3.303,-5.5,-19.9,10.2
3.305,-2.0,-25.9,5.1
3.306,4.5,-27.2,3.9
3.399,9.1,-22.0,3.2
3.401,9.4,-17.1,1.7
3.403,7.3,-12.4,0.5
3.414,7.1,-7.7,-0.0
3.5,7.7,-3.4,-0.9
3.501,7.6,-0.3,-1.4
3.503,7.7,0.6,-0.9
3.505,5.7,0.7,1.4
3.506,4.2,0.2,3.1
3.6,3.5,0.4,3.7
3.608,3.7,1.2,4.1
3.609,4.2,1.1,5.6
3.611,4.2,-1.1,4.9
3.612,5.6,-6.0,1.6
3.704,9.1,-15.1,-0.7
3.706,8.6,-34.4,-8.0
3.708,3.6,-38.4,-9.7
3.709,3.0,-25.1,-6.9
3.711,4.5,-20.5,-7.8
3.8,5.1,-18.4,-7.7
3.801,3.1,-14.4,-6.0
3.803,1.8,-12.0,-4.7
3.815,1.3,-9.2,-3.8
3.824,0.7,-6.4,-2.8
3.9,-0.8,-3.8,-2.2
3.901,-2.7,-1.9,-1.7
3.903,-3.9,-0.9,-0.8
3.905,-4.4,-1.3,1.4
3.906,-6.1,-2.9,3.2
4.005,-8.7,-3.1,2.6
4.007,-9.8,-0.5,-2.3
4.01,-4.5,-0.1,-2.6
4.012,1.1,-5.0,-2.5
4.013,0.6,-12.8,-1.6
4.1,-0.8,-15.4,-0.5
4.101,-1.8,-10.9,1.5
4.103,-3.1,-10.7,2.9
4.105,-3.1,-21.0,-0.1
4.106,-1.7,-31.1,-2.7
4.199,0.8,-27.4,0.0
4.201,1.9,-19.6,1.1
4.212,2.8,-16.0,0.7
4.214,4.6,-14.5,-0.7
4.217,6.5,-13.1,-1.2
4.3,6.9,-9.7,-1.0
4.303,6.3,-5.2,-0.7
4.305,6.3,-1.3,-0.4
4.307,7.4,0.4,0.2
4.309,7.6,0.6,0.6
4.424,7.0,1.3,0.9
4.426,6.8,1.8,1.6
4.428,6.9,0.7,1.7
4.429,6.6,-1.9,0.9
4.431,6.7,-4.4,-2.6
4.502,8.9,-12.4,-5.1
4.503,9.5,-23.2,-8.1
4.509,5.8,-22.4,-7.4
4.511,5.4,-19.2,-6.5
4.512,6.8,-22.3,-6.6
4.514,6.8,-24.9,-6.8
4.597,4.6,-22.5,-5.3
4.599,2.1,-16.6,-2.5
4.601,0.5,-14.2,-2.0
4.602,-0.3,-11.5,-2.1
4.701,-2.4,-7.0,-2.0
4.702,-5.7,-4.6,-1.4
4.704,-7.8,-3.8,-1.2
4.709,-9.2,-3.3,-0.5
4.711,-9.3,-2.6,0.2
4.799,-7.0,-1.1,-1.2
4.801,-4.2,-0.4,-1.4
4.803,-3.5,1.0,-1.0
4.804,-4.1,0.3,-1.0
4.806,-4.3,-1.7,-1.8
4.899,-4.4,-5.4,-1.6
4.901,-5.9,-13.3,-7.2
4.903,-10.2,-32.3,-19.7
4.904,-6.7,-39.2,-16.3
4.906,-1.6,-22.7,-6.5
4.999,-0.2,-19.1,-3.8
5.001,2.8,-23.0,-4.3
5.003,4.0,-18.4,-3.8
5.005,5.3,-10.5,-3.5
5.007,6.9,-4.7,-4.2
5.101,8.4,-0.9,-4.0
5.103,9.0,0.9,-3.6
5.105,9.0,1.3,-3.3
5.107,7.9,2.0,-2.7
5.205,6.5,2.9,-0.8
5.207,6.1,2.9,-0.6
5.208,6.3,2.3,-0.2
5.21,6.6,1.0,-0.6
5.212,6.8,0.0,-0.3
5.299,8.8,-5.8,-1.0
5.301,9.6,-21.3,-5.0
5.303,6.5,-32.2,-13.4
5.304,2.2,-28.8,-10.8
5.306,0.9,-26.9,-5.6
5.401,2.8,-23.1,-2.5
5.403,4.5,-18.2,-1.9
5.404,3.2,-15.3,-2.6
5.406,0.8,-12.0,-1.7
5.408,-1.0,-8.5,-1.0
5.499,-2.4,-6.0,-1.4
5.501,-2.3,-5.6,-1.7
5.503,-2.2,-6.7,-1.5
5.504,-3.1,-6.9,-1.0
5.506,-4.4,-5.3,-0.2
5.599,-5.8,-4.0,0.7
5.601,-7.1,-3.7,0.1
5.602,-7.3,-2.8,-1.3
5.604,-5.8,-1.4,-1.4
5.61,-3.9,-0.5,-0.4
5.699,-3.3,-0.2,0.9
5.701,-3.0,-0.1,1.0
5.702,-1.9,-2.1,-0.1
5.704,-3.0,-17.4,-2.5
5.737,-10.2,-39.2,-8.8
5.799,-6.4,-35.8,1.0
5.804,-1.6,-18.8,12.7
5.806,-0.3,-12.9,10.5
5.808,2.7,-18.7,4.1
5.809,7.9,-19.4,-1.6
5.898,11.4,-14.2,-2.4
5.9,11.1,-11.0,-0.2
5.902,9.0,-8.2,-0.2
5.903,8.7,-4.9,1.2
5.905,8.5,-1.5,2.0
6.004,8.8,0.2,1.9
6.006,8.0,0.6,2.0
6.007,7.4,0.9,1.4
6.009,7.0,0.5,1.8
6.011,7.1,-1.2,2.1
6.099,9.2,-5.5,2.3
6.1,11.0,-13.4,3.3
6.106,5.2,-33.2,1.5
6.118,-0.3,-39.2,1.6
6.12,-2.7,-32.6,6.5
6.199,-3.1,-20.9,9.4
6.2,-4.1,-15.2,7.6
6.202,-5.7,-12.2,3.8
6.204,-7.5,-8.4,1.3
6.205,-5.6,-4.3,2.1
6.299,-4.6,-1.8,1.4
6.302,-3.9,-0.2,-0.2
6.303,-3.2,-0.2,-1.3
6.305,-3.1,-2.4,-1.6
6.306,-3.9,-5.9,-2.0
6.399,-6.5,-4.7,-0.5
6.4,-10.6,-2.3,1.8
6.402,-11.1,-1.7,2.6
6.404,-8.3,-1.9,4.0
6.405,-4.9,0.2,-0.2
6.499,-5.0,-3.9,-4.3
6.5,-9.8,-23.8,-5.6
6.513,-7.4,-33.1,4.8
6.515,-6.2,-22.1,16.8
6.518,-5.9,-28.8,9.8
6.599,-1.8,-32.9,4.2
6.6,2.8,-21.3,1.3
6.602,4.7,-11.7,0.8
6.604,6.5,-7.9,0.4
6.609,7.8,-6.1,-0.6
6.699,7.9,-5.1,-0.4
6.701,6.9,-4.0,-0.4
6.702,5.9,-3.2,-0.8
6.705,5.5,-1.4,-1.7
6.799,5.4,0.5,-1.0
6.8,4.7,0.5,0.3
6.806,3.4,-2.4,0.5
6.808,2.9,-7.8,1.0
6.81,3.1,-11.6,-0.1
6.905,4.9,-15.4,0.2
6.907,4.8,-19.9,-0.5
6.918,2.0,-23.8,-1.8
6.92,0.3,-24.6,-2.5
6.921,1.0,-21.3,-1.9
6.999,1.7,-19.3,-1.1
7.001,2.0,-20.5,0.2
7.006,0.4,-20.5,0.1
7.007,-1.5,-15.2,-0.5
7.009,-2.6,-10.1,0.3
7.099,-4.3,-6.7,0.3
7.101,-6.0,-4.7,-0.4
7.103,-8.0,-3.0,-1.8
7.104,-8.6,-1.9,-2.5
7.107,-7.2,-0.9,-2.0
7.199,-6.0,0.4,-1.4
7.2,-5.6,1.2,-1.3
7.202,-5.2,0.7,-0.7
7.204,-3.5,0.8,-0.2
7.205,-1.3,0.1,-0.4
7.298,-2.3,-5.6,-0.2
7.318,-8.1,-18.7,-3.2
7.319,-14.0,-29.6,0.8
7.321,-11.8,-32.2,2.9
7.323,-7.0,-31.3,-0.4
7.398,-3.4,-27.8,-0.9
7.4,-0.8,-20.9,-0.7
7.402,1.5,-14.8,-1.1
7.403,4.1,-11.1,-0.4
7.405,5.0,-7.1,0.7
7.499,5.2,-4.2,1.4
7.504,5.3,-2.2,1.2
7.506,5.5,-1.0,0.7
7.507,5.5,-0.5,0.3
7.509,5.1,0.2,0.7
7.573,4.6,0.4,2.0
7.575,4.3,-1.4,0.3
7.577,4.3,-6.3,-2.8
7.578,5.7,-10.1,-4.8
7.58,6.2,-10.7,-5.5
7.697,5.2,-13.1,-6.6
7.699,4.3,-19.5,-7.4
7.7,3.6,-25.8,-10.2
7.703,3.8,-28.1,-6.9
7.802,1.6,-25.5,-7.3
7.804,1.9,-22.4,-8.2
7.805,1.7,-17.1,-4.9
7.807,-1.5,-11.7,-1.5
7.809,-4.3,-6.8,-0.0
7.81,-4.5,-3.7,1.1
7.898,-3.2,-2.8,1.9
7.904,-2.7,-3.8,1.6
7.906,-3.1,-4.8,0.8
7.908,-3.2,-4.3,0.8
7.909,-3.0,-3.3,0.9
7.998,-3.0,-2.9,0.7
8.0,-3.1,-2.6,0.3
8.002,-3.0,-1.7,-0.2
8.003,-2.4,-0.9,-0.3
8.016,-1.4,-2.0,0.5
8.098,-2.2,-4.1,0.2
8.1,-3.1,-6.1,-0.7
8.106,-3.6,-9.2,-1.0
8.108,-5.6,-14.5,0.5
8.11,-10.1,-19.3,-1.6
8.198,-11.5,-28.1,-7.1
8.2,-5.6,-29.1,-4.9
8.202,-0.4,-22.3,-1.2
8.203,0.8,-17.6,-1.3
8.209,0.2,-16.0,-1.9
8.298,1.1,-15.3,-2.6
8.299,2.6,-12.7,-2.5
8.301,3.3,-9.8,-2.3
8.303,3.2,-7.5,-2.1
8.399,3.2,-5.9,-2.1
8.4,3.2,-4.7,-1.9
8.402,3.7,-3.3,-1.6
8.404,4.2,-2.1,-0.8
8.423,4.3,-1.4,0.5
8.498,4.2,-1.6,1.6
8.5,4.2,-5.2,-2.0
8.502,6.0,-11.3,-5.1
8.503,9.3,-16.1,-5.1
8.509,8.3,-19.6,-8.1
8.599,3.8,-20.6,-10.3
8.6,2.0,-16.9,-9.2
8.605,2.2,-13.8,-7.3
8.607,3.7,-13.2,-5.7
8.609,4.3,-12.3,-4.6
8.699,3.6,-10.4,-4.0
8.701,2.7,-8.1,-2.5
8.703,2.1,-6.6,-1.1
8.705,1.8,-6.1,-0.2
8.707,1.8,-6.1,0.0
8.798,1.6,-5.5,-0.1
8.8,0.6,-3.7,-1.3
8.802,-2.2,-1.9,-2.3
8.814,-5.9,-0.4,-1.9
8.817,-8.1,-0.1,-2.1
8.898,-6.8,-1.2,-2.2
8.9,-3.4,-2.5,-1.5
8.902,-2.0,-3.6,-0.7
8.904,-3.2,-4.2,-0.9
8.906,-5.4,-7.9,-2.5
8.998,-6.1,-13.2,-6.7
9.0,-5.8,-18.7,-8.7
9.002,-6.0,-23.0,-7.5
9.008,-5.5,-26.7,-6.5
9.01,-2.9,-25.5,-6.0
9.098,0.1,-20.1,-5.8
9.1,2.1,-17.6,-6.7
9.102,3.1,-17.2,-6.5
9.104,3.5,-15.4,-5.1
9.106,4.0,-12.4,-3.7
9.198,4.7,-9.4,-2.8
9.2,5.3,-7.3,-2.3
9.212,5.6,-5.9,-2.1
9.214,5.5,-4.9,-1.3
9.217,5.6,-3.5,-0.9
9.304,6.9,-1.9,0.2
9.306,8.9,-0.6,0.9
9.307,11.0,-0.0,1.2
9.309,10.3,0.6,1.3
9.311,8.4,-1.5,0.9
9.399,8.4,-10.4,-1.0
9.4,8.6,-23.1,-4.6
9.402,5.5,-32.6,-6.5
9.404,-0.6,-30.9,-5.2
9.405,-3.2,-25.6,-2.7
9.498,-3.1,-18.8,-0.9
9.5,0.1,-15.3,-0.8
9.502,1.5,-16.0,-1.2
9.503,-0.4,-14.7,-0.6
9.505,-1.7,-11.8,1.4
9.598,-1.4,-9.0,2.6
9.61,-0.8,-6.9,2.6
9.62,-0.8,-4.9,1.6
9.622,-1.9,-2.7,0.6
9.624,-3.8,-0.5,-0.2
9.698,-5.2,1.0,-1.3
9.7,-5.6,0.9,-2.4
9.702,-5.0,0.2,-2.7
9.703,-4.2,0.2,-2.0
9.705,-4.6,0.5,-0.7
9.798,-5.2,-0.5,-0.3
9.8,-5.5,-1.7,-2.2
9.801,-6.7,-5.4,-7.5
9.804,-9.0,-13.7,-11.4
9.82,-9.4,-17.3,-10.2
9.899,-5.7,-24.4,-18.0
9.9,-0.8,-27.8,-19.7
9.902,1.5,-22.1,-16.2
9.904,1.6,-17.8,-13.1
9.905,1.2,-16.0,-11.5
9.999,1.8,-14.8,-10.0
10.005,2.9,-13.3,-8.5
10.007,3.9,-11.1,-7.1
10.009,4.8,-9.5,-5.8
10.01,4.9,-8.4,-4.5
10.098,4.1,-6.5,-3.7
10.099,4.0,-5.3,-2.9
10.101,3.8,-4.9,-3.2
10.103,3.8,-6.0,-3.2
10.198,4.6,-6.6,-1.7
10.2,6.1,-4.5,-0.6
10.201,6.9,-1.8,1.3
10.203,6.9,-0.5,2.6
10.205,7.8,-2.5,1.7
10.298,9.5,-6.6,0.2
10.299,10.3,-11.9,-0.9
10.301,8.5,-18.1,-3.3
10.303,8.0,-21.0,-3.1
10.304,6.2,-21.7,-1.7
10.404,3.5,-22.3,-1.3
10.408,1.7,-20.1,-1.4
10.411,1.7,-16.1,-0.4
10.412,2.5,-12.6,0.7
10.414,2.8,-11.3,1.7
10.498,2.0,-10.7,2.2
10.499,0.1,-8.7,2.1
10.501,-1.7,-7.2,1.5
10.502,-2.6,-5.4,1.4
10.507,-3.2,-2.1,1.0
10.598,-4.7,-0.0,1.4
10.599,-5.7,-0.6,1.2
10.601,-6.5,-2.5,-0.5
10.603,-7.0,-4.1,-2.2
10.604,-5.6,-3.2,-3.9
10.673,-3.7,0.1,-3.3
10.679,-1.7,-5.8,6.0
10.681,-0.7,-10.9,5.8
10.682,1.3,-13.2,9.2
10.694,1.2,-21.9,5.5
10.813,1.6,-27.5,2.2
10.816,4.0,-24.4,-3.1
10.819,7.3,-26.8,-8.0
10.822,7.5,-24.4,-5.7
10.899,5.4,-15.7,-3.6
10.901,6.3,-10.8,-2.6
10.902,7.1,-8.8,-2.1
10.907,6.9,-6.7,-1.7
10.909,7.1,-3.9,-1.0
10.911,7.4,-1.7,-0.1
11.002,6.9,-0.4,0.9
11.003,7.5,0.8,0.7
11.005,8.9,2.1,0.9
11.007,10.7,1.6,1.0
11.008,10.6,-0.8,-0.2
11.097,12.2,-7.9,-2.2
11.105,13.9,-19.9,-5.1
11.107,9.5,-25.9,-7.0
11.119,6.5,-26.7,-5.9
11.121,6.1,-28.5,-4.5
11.198,4.8,-26.3,-3.3
11.2,3.2,-21.0,-2.2
11.201,2.4,-16.5,-1.2
11.203,2.3,-13.8,0.5
11.205,1.5,-11.9,-0.0
11.298,0.1,-9.6,0.5
11.304,-1.2,-7.5,1.0
11.306,-2.7,-5.6,1.4
11.307,-5.2,-3.8,0.6
11.309,-8.0,-2.5,0.2
11.372,-9.8,-1.5,-0.8
11.374,-8.2,-1.1,-0.7
11.376,-6.3,-0.3,-1.2
11.377,-5.0,0.5,-1.1
11.379,-3.4,0.9,0.5
11.496,-2.4,-0.8,-0.2
11.497,-1.0,-3.7,-1.2
11.51,-1.7,-7.3,1.0
11.6,-7.0,-19.8,-1.1
11.601,-8.7,-38.7,-8.9
11.603,-0.6,-38.0,-7.0
11.611,7.0,-27.7,-3.3
11.613,9.0,-25.3,-0.9
11.614,6.1,-22.0,-0.7
11.698,4.3,-16.0,-1.4
11.7,5.0,-10.5,-0.7
11.702,6.1,-6.8,0.7
11.703,6.8,-4.8,0.1
11.705,7.2,-4.0,-0.2
11.707,6.9,-2.5,0.4
11.799,5.3,-0.8,1.0
11.8,4.4,0.5,0.7
11.802,5.0,1.1,0.6
11.804,7.3,0.5,0.3
11.898,7.9,-1.0,0.0
11.899,8.2,-3.3,-1.0
11.919,12.0,-10.5,0.6
11.921,10.9,-18.8,-4.4
11.924,6.6,-23.6,-6.6
11.998,4.7,-28.3,-3.7
11.999,3.5,-28.9,-3.9
12.001,2.3,-24.1,-2.9
12.003,2.0,-18.9,-1.4
12.004,1.4,-16.1,-0.3
12.098,0.6,-13.6,0.4
12.099,-0.5,-11.0,0.5
12.101,-1.6,-7.9,0.5
12.106,-3.0,-5.3,0.2
12.107,-4.4,-3.5,0.3
12.198,-5.9,-2.4,0.0
12.199,-6.3,-2.0,0.1
12.201,-6.2,-1.5,-0.2
12.202,-5.8,-1.2,-0.5
12.209,-6.2,-1.0,-0.9
12.298,-5.7,-2.0,-1.3
12.309,-4.6,-3.9,-0.0
12.312,-2.7,-6.4,-0.6
12.314,-2.5,-9.7,-0.5
12.324,-4.7,-13.9,1.9
12.398,-7.2,-17.6,2.8
12.399,-6.5,-21.1,0.0
12.401,-3.2,-24.1,-5.0
12.403,-0.4,-24.8,-7.0
12.404,-0.1,-24.5,-6.1
12.497,0.6,-22.1,-5.0
12.499,2.6,-17.0,-2.6
12.5,4.0,-13.0,-0.8
12.502,4.4,-9.9,-0.4
12.508,4.6,-7.7,-1.1
12.602,5.0,-6.0,-2.1
12.604,5.3,-4.9,-2.1
12.605,5.4,-3.4,-1.5
12.607,5.8,-1.6,-0.6
12.609,6.7,0.1,-0.0
12.698,8.3,-0.1,-0.4
12.699,8.9,-2.5,-0.2
12.701,8.3,-5.9,-1.1
12.702,8.6,-14.0,-2.3
12.704,6.3,-21.7,-5.7
12.797,2.3,-24.6,-7.3
12.799,-0.2,-29.1,-6.5
12.801,-2.2,-30.6,-5.9
12.802,-4.2,-24.2,-4.1
12.804,-4.1,-18.1,-2.2
12.897,-3.4,-16.3,0.2
12.899,-4.1,-15.2,0.7
12.901,-4.6,-12.0,1.3
12.902,-4.8,-7.1,1.8
12.904,-4.9,-3.8,0.8
12.997,-5.1,-1.5,0.3
12.999,-5.7,-0.3,-0.8
13.001,-5.8,-1.1,-0.7
13.002,-6.1,-1.9,-0.2
13.014,-5.9,-1.3,0.2
13.072,-2.6,1.3,2.0
13.074,-6.1,2.3,1.3
13.076,-8.4,-0.8,-1.2
13.077,-6.2,-2.5,-0.5
13.079,-7.3,-2.6,-0.7
13.197,-14.2,-18.7,-7.2
13.198,-19.4,-35.1,-17.2
13.205,-8.4,-32.2,-8.3
13.298,-1.3,-25.6,-1.9
13.304,-1.0,-25.1,-2.4
13.306,-0.2,-25.1,-3.5
13.308,1.4,-19.8,-3.6
13.309,2.9,-14.9,-3.2
13.311,3.8,-12.0,-2.4
13.397,4.3,-10.2,-2.4
13.399,4.6,-8.0,-3.3
13.4,4.9,-4.9,-4.5
13.402,5.9,-2.0,-4.3
13.416,8.0,-0.6,-3.2
13.497,8.0,-0.5,0.1
13.499,6.0,-2.0,3.3
13.5,3.2,-4.0,3.6
13.502,2.9,-7.6,0.5
13.504,4.0,-12.3,-0.7
13.597,3.7,-15.4,-0.7
13.598,0.8,-18.3,-0.9
13.604,-1.7,-24.9,-2.7
13.606,-3.1,-29.9,-5.2
13.608,-4.8,-27.9,-4.4
13.697,-5.5,-24.6,-1.7
13.698,-5.3,-22.3,-0.3
13.7,-4.9,-18.7,0.6
13.702,-4.3,-16.5,1.2
13.703,-3.9,-15.1,1.2
13.797,-4.1,-12.4,1.4
13.798,-5.2,-8.8,1.6
13.8,-6.2,-5.8,1.3
13.822,-7.6,-3.7,0.5
13.824,-8.6,-2.0,-1.0
13.901,-8.9,-1.3,-1.5
13.903,-8.8,0.1,-2.0
13.904,-8.9,2.2,-2.4
13.906,-3.9,4.7,0.9
13.908,-3.4,4.5,0.8
13.997,-2.5,-0.6,-0.9
13.998,-2.9,-3.2,0.9
14.0,-2.7,-7.0,5.8
14.005,-8.4,-19.1,0.9
14.007,-10.5,-34.5,-6.8
14.096,-5.8,-30.5,1.4
14.098,-2.3,-26.6,3.2
14.099,-0.4,-25.1,1.6
14.101,1.4,-19.7,1.4
14.103,3.2,-16.2,0.9
14.197,3.5,-14.5,-0.1
14.199,3.1,-12.1,-0.3
14.211,3.5,-8.9,-0.3
14.213,4.4,-5.7,-0.1
14.215,4.8,-4.0,-0.2
14.297,5.0,-4.2,-0.6
14.307,5.2,-4.7,-0.5
14.309,5.5,-3.4,-0.1
14.311,6.2,-2.6,0.7
14.313,5.8,-3.8,2.0
14.399,5.7,-6.9,3.2
14.402,6.4,-12.1,3.2
14.404,4.2,-21.3,2.0
14.41,2.0,-24.0,2.6
14.412,0.3,-21.4,6.1
14.522,-1.1,-20.1,9.2
14.524,-1.9,-20.4,8.3
14.53,0.4,-19.8,5.5
14.531,0.6,-16.9,3.8
14.533,-1.3,-12.6,2.3
14.598,-2.2,-8.0,2.2
14.62,-1.8,-4.8,2.4
14.621,-1.2,-3.4,2.0
14.623,-2.3,-2.9,1.5
14.625,-3.9,-2.3,0.7
14.626,-4.4,-1.1,-0.2
14.695,-5.0,0.9,-0.7
14.698,-5.2,2.4,-0.9
14.7,-4.6,1.9,-0.9
14.701,-3.9,-0.9,-1.9
14.796,-3.7,-5.5,-2.5
14.802,-2.9,-12.9,0.8
14.804,-3.6,-18.2,5.0
14.805,-4.9,-19.3,7.1
14.897,-4.4,-21.4,6.8
14.899,-2.3,-20.3,6.5
14.904,-0.2,-18.1,5.7
14.906,1.5,-20.2,4.6
14.908,1.2,-17.9,3.7
14.999,-0.4,-14.1,3.5
15.011,-1.0,-11.8,2.8
15.013,0.1,-9.1,2.1
15.014,1.9,-7.3,1.6
15.016,3.7,-5.8,0.8
15.101,4.7,-5.2,0.3
15.103,4.7,-5.2,-0.0
15.104,4.0,-3.9,-0.2
15.106,3.5,-1.3,0.0
15.108,4.0,0.5,0.7
15.109,4.8,1.7,0.6
15.196,6.2,1.6,0.9
15.198,7.6,-3.4,1.8
15.2,6.6,-15.5,1.3
15.207,6.3,-22.3,-0.2
15.298,5.7,-18.7,3.1
15.3,3.6,-17.8,5.7
15.301,1.4,-23.4,6.0
15.303,0.7,-25.7,6.6
15.305,0.3,-17.5,8.8
15.4,0.1,-10.5,9.6
15.401,-1.5,-9.0,9.4
15.403,-3.1,-8.8,8.2
15.405,-3.4,-6.0,7.3
15.406,-2.7,-3.6,6.9
15.497,-2.8,-3.3,4.7
15.498,-4.2,-3.8,2.1
15.5,-6.0,-3.2,-0.2
15.502,-7.6,-2.4,-2.4
15.503,-8.2,-2.9,-4.2
15.597,-6.8,-4.2,-5.2
15.598,-5.0,-6.4,-4.3
15.6,-4.5,-8.0,-3.7
15.602,-5.1,-5.6,-1.0
15.603,-7.4,-6.7,3.4
15.697,-9.8,-18.3,2.3
15.698,-9.6,-28.0,2.6
15.7,-5.7,-24.2,5.0
15.702,-2.2,-21.3,6.0
15.714,-0.2,-23.2,4.8
15.795,2.2,-21.6,4.4
15.797,3.5,-17.4,4.2
15.799,4.4,-13.9,3.8
15.8,4.6,-11.1,3.3
15.805,4.8,-9.3,2.2
15.902,5.5,-7.4,2.0
15.903,5.6,-5.1,2.0
15.905,5.1,-3.4,2.1
15.906,4.8,-2.6,2.0
15.998,5.5,-2.0,2.1
16.0,6.3,-1.5,2.3
16.001,6.4,-1.8,2.6
16.003,6.4,-2.8,2.4
16.005,7.4,-6.8,3.8
16.006,6.6,-14.5,4.5
16.097,4.6,-20.8,4.6
16.098,3.4,-21.5,6.2
16.1,1.9,-22.8,7.2
16.119,0.8,-23.4,8.0
16.121,0.4,-18.9,9.2
16.197,0.2,-14.4,10.0
16.198,-0.2,-11.9,9.7
16.2,-0.7,-10.7,8.4
16.202,-0.8,-8.4,6.5
16.203,-1.0,-5.8,5.2
16.301,-1.4,-3.6,4.0
16.302,-2.1,-2.1,2.4
16.304,-2.6,-2.5,0.4
16.306,-3.1,-1.9,-0.2
16.307,-3.7,-1.2,0.0
16.397,-4.1,-0.6,0.1
16.398,-4.7,-1.3,-0.7
16.4,-5.2,-2.3,-1.2
16.401,-4.4,-1.6,-0.3
16.403,-4.6,-2.0,3.0
16.497,-6.0,-6.6,4.7
16.498,-7.1,-14.2,3.8
16.51,-7.6,-21.3,4.4
16.512,-7.3,-21.7,5.5
16.515,-7.3,-18.9,7.8
16.596,-7.0,-20.1,5.6
16.598,-8.0,-21.9,2.0
16.599,-5.1,-22.7,0.9
16.601,0.2,-21.3,1.1
16.696,2.9,-18.1,0.8
16.698,3.7,-15.8,-0.1
16.7,4.7,-13.4,-0.6
16.701,5.4,-10.9,-0.8
16.704,5.7,-7.5,-0.6
16.797,6.0,-4.2,-0.3
16.799,6.4,-2.1,0.0
16.8,6.7,-0.9,0.1
16.802,6.7,-1.5,-0.0
16.804,7.5,-3.8,-1.5
16.896,9.0,-6.6,-2.4
16.898,9.6,-8.4,-2.1
16.91,6.9,-13.7,-1.0
16.912,3.8,-21.7,0.7
16.913,1.6,-16.0,4.9
16.996,-1.6,-13.5,7.8
16.998,-3.8,-17.2,6.9
17.0,-0.5,-22.5,5.0
17.007,1.5,-25.1,2.8
17.009,0.6,-20.9,1.2
17.101,-0.5,-14.7,-0.2
17.103,-0.7,-11.3,-1.6
17.104,0.0,-11.5,-2.1
17.106,-0.3,-11.2,-1.5
17.107,-2.1,-8.7,-0.2
17.196,-3.8,-4.0,1.1
17.198,-4.1,-0.5,2.4
17.2,-3.1,2.5,2.6
17.201,-3.8,2.5,1.9
17.208,-5.8,0.3,0.5
17.301,-6.7,-0.4,-2.2
17.312,-4.3,0.5,-1.6
17.315,-3.1,-0.3,-1.4
17.317,-3.8,-5.0,-3.8
17.319,-3.5,-9.7,-4.6
17.396,-2.7,-16.3,0.0
17.398,-3.5,-21.9,5.7
17.4,-6.9,-20.9,11.3
17.401,-9.0,-21.4,11.8
17.406,-8.4,-18.9,11.9
17.497,-7.0,-18.2,10.3
17.498,-5.2,-16.0,8.3
17.5,-2.8,-15.3,7.4
17.502,0.2,-15.6,6.9
17.503,1.4,-11.3,6.7
17.596,0.9,-6.6,7.6
17.598,0.8,-3.7,7.7
17.6,1.3,-2.8,6.8
17.601,2.7,-3.4,5.5
17.603,5.5,-4.8,4.2
17.696,8.5,-5.2,2.8
17.698,10.0,-5.3,1.9
17.699,10.2,-7.2,0.5
17.701,10.1,-8.0,-0.1
17.706,9.7,-8.9,0.9
17.796,6.1,-16.2,3.4
17.798,3.2,-24.1,3.4
17.8,0.3,-22.4,5.4
17.806,-1.3,-19.1,7.6
17.807,-2.6,-17.0,7.7
17.896,-2.3,-18.1,7.2
17.898,-1.9,-18.8,6.6
17.9,-3.7,-16.1,6.1
17.901,-6.0,-8.8,7.2
17.903,-8.7,-4.3,5.7
17.996,-11.6,-1.0,4.5
17.997,-8.5,0.8,3.6
17.999,-4.8,1.3,2.7
18.005,-2.9,1.3,1.7
18.017,-3.4,1.9,0.8
18.096,-4.5,2.7,1.2
18.098,-5.2,1.6,1.3
18.103,-5.5,0.2,1.4
18.104,-4.2,1.8,2.6
18.106,-5.2,0.2,9.6
18.196,-11.0,-11.2,15.8
18.197,-15.9,-25.0,10.0
18.199,-15.3,-18.4,10.1
18.201,-10.2,-12.1,17.3
18.202,-8.8,-16.1,15.6
18.295,-6.1,-15.6,13.7
18.302,-2.4,-13.7,10.9
18.303,0.1,-12.9,8.2
18.305,2.5,-11.5,7.0
18.396,3.7,-10.2,5.0
18.398,3.5,-7.9,3.5
18.403,3.2,-6.2,2.3
18.405,3.8,-4.8,1.8
18.418,4.4,-3.7,1.8
18.496,5.0,-4.3,2.0
18.503,5.3,-4.7,2.2
18.505,6.3,-6.0,2.6
18.508,6.8,-5.6,2.9
18.51,7.5,-6.7,3.6
18.596,7.1,-11.3,6.3
18.598,4.2,-18.8,9.0
18.6,2.1,-19.4,10.1
18.605,0.9,-18.4,11.7
18.607,-0.8,-18.7,11.7
18.697,-1.1,-19.4,11.8
18.698,-1.2,-17.9,11.2
18.7,-2.1,-14.8,10.4
18.702,-3.5,-11.7,8.7
18.703,-4.1,-9.8,7.8
18.796,-4.6,-7.5,6.1
18.798,-4.9,-5.3,4.6
18.799,-7.3,-2.7,1.9
18.812,-10.4,-0.9,0.1
18.815,-10.1,-1.0,-0.4
18.92,-7.7,-0.9,-0.4
18.922,-6.4,0.4,-0.5
18.923,-5.1,0.6,-1.6
18.925,-2.9,0.2,-1.7
18.927,-0.7,1.8,-1.4
18.996,-0.0,1.4,0.7
18.998,-3.8,-5.7,3.3
18.999,-10.3,-17.1,6.6
19.001,-14.9,-21.2,10.7
19.003,-14.5,-19.8,14.8
19.095,-10.8,-18.7,16.4
19.097,-10.6,-22.1,11.1
19.099,-7.3,-22.6,8.0
19.1,-1.6,-15.5,6.6
19.102,4.0,-12.0,5.9
19.197,5.7,-10.2,4.2
19.198,4.5,-9.6,2.4
19.21,3.3,-7.7,2.1
19.212,3.8,-6.2,1.7
19.215,4.7,-4.8,1.5
19.297,5.0,-3.2,1.5
19.299,5.4,-2.6,1.6
19.301,6.1,-3.5,1.6
19.306,6.8,-4.9,1.7
19.307,7.7,-7.4,2.6
19.396,6.4,-16.8,3.7
19.398,3.6,-23.6,2.2
19.399,0.1,-20.7,4.5
19.402,-2.9,-20.2,6.1
19.404,-3.5,-22.7,6.1
19.496,-2.4,-21.4,6.8
19.497,-2.6,-19.4,7.2
19.499,-3.7,-17.5,7.3
19.501,-5.4,-15.4,5.9
19.502,-6.5,-12.6,5.2
19.596,-8.3,-9.0,3.1
19.617,-7.9,-5.8,1.8
19.618,-7.6,-3.9,-1.1
19.62,-8.2,-1.9,-4.2
19.622,-9.3,1.7,-5.7
19.696,-10.4,3.4,-1.9
19.698,-8.4,6.9,-1.4
19.702,-5.7,9.7,-2.4
19.704,-6.7,8.0,-1.9
19.706,-9.1,6.2,0.5
19.796,-10.7,-5.0,7.2
19.798,-13.6,-28.1,8.8
19.8,-19.0,-28.2,4.6
19.809,-19.1,-29.1,7.6
19.81,-14.9,-25.7,3.5
19.895,-9.4,-23.1,5.6
19.897,-5.6,-19.9,2.8
19.898,-2.4,-19.8,-1.0
19.9,0.2,-16.1,-2.2
19.996,2.2,-12.0,-2.1
20.008,3.3,-9.3,-1.7
20.01,3.9,-8.3,-1.1
20.012,4.3,-8.0,-0.8
20.014,5.7,-7.1,-1.4
20.096,8.5,-7.0,-1.9
20.097,11.1,-6.5,-1.9
20.108,11.8,-6.2,-2.3
20.111,8.6,-7.1,-2.5
20.113,5.4,-9.8,-2.4
20.196,3.0,-16.4,-1.6
20.197,-0.4,-23.0,-0.2
20.199,-4.4,-24.3,1.0
20.201,-9.1,-24.4,3.1
20.207,-11.5,-21.3,1.5
20.296,-10.2,-17.2,1.7
20.297,-6.3,-15.9,4.8
20.299,-6.3,-14.4,8.4
20.305,-7.7,-10.4,8.1
20.306,-6.4,-7.5,6.4
20.397,-5.4,-5.6,4.6
20.399,-6.2,-4.7,3.5
20.401,-6.7,-4.1,3.2
20.406,-6.3,-2.4,2.6
20.408,-5.9,-0.6,2.2
20.496,-5.9,0.6,1.9
20.498,-5.9,1.6,1.1
20.499,-5.9,2.2,0.7
20.501,-5.6,1.9,0.2
20.502,-5.0,0.7,0.6
20.596,-4.4,-1.1,1.2
20.597,-5.4,-4.6,1.6
20.599,-7.9,-13.3,0.1
20.601,-10.6,-22.4,-2.2
20.603,-10.3,-25.6,1.7
20.699,-8.9,-22.7,5.2
20.7,-7.1,-19.1,6.7
20.702,-5.9,-19.5,5.1
20.704,-3.8,-19.2,3.4
20.716,-1.0,-17.4,2.1
20.795,1.2,-16.1,0.5
20.797,2.6,-13.8,0.2
20.799,3.0,-11.1,0.4
20.8,3.4,-8.4,0.6
20.802,3.8,-6.7,0.7
20.895,4.5,-6.1,0.5
20.897,5.3,-5.1,0.6
20.902,6.5,-3.5,0.8
20.904,8.3,-2.9,0.8
20.905,9.4,-4.0,-0.1
20.972,9.2,-6.1,-0.9
20.974,7.9,-10.3,-0.1
20.975,4.4,-16.8,-0.1
20.977,0.3,-23.4,1.4
20.978,-4.2,-27.4,2.0
21.095,-7.9,-28.1,2.5
21.097,-9.9,-24.7,3.3
21.099,-8.4,-17.9,4.5
21.113,-4.9,-14.4,5.8
21.197,-4.3,-13.8,5.7
21.198,-5.1,-11.0,5.1
21.204,-4.8,-6.9,5.4
21.205,-3.4,-4.1,5.7
21.21,-2.1,-2.9,5.7
21.211,-2.4,-2.1,4.7
21.295,-3.7,-1.6,2.5
21.297,-4.3,-1.4,1.4
21.299,-4.4,-1.3,0.9
21.3,-5.1,0.5,-0.2
21.302,-5.5,1.9,-1.0
21.395,-4.9,0.2,-1.5
21.397,-5.0,-2.8,-1.9
21.399,-6.3,-5.2,-1.5
21.4,-7.8,-7.4,-1.8
21.402,-9.1,-10.4,-0.5
21.495,-11.4,-14.9,1.8
21.497,-12.3,-19.5,3.0
21.507,-10.0,-20.1,4.0
21.514,-7.3,-21.1,3.4
21.516,-5.6,-23.8,2.9
21.598,-4.1,-24.1,4.9
21.6,-3.1,-22.0,4.3
21.601,-1.9,-17.5,3.1
21.603,-0.4,-14.8,2.1
21.695,1.1,-12.7,1.1
21.701,2.1,-10.5,-0.2
21.703,2.9,-8.3,-1.6
21.705,3.9,-6.3,-2.3
21.706,5.0,-5.1,-1.9
21.795,5.5,-4.2,-1.6
21.797,5.9,-3.2,-1.9
21.799,6.6,-2.2,-1.9
21.827,7.0,-2.0,-1.3
21.829,6.5,-3.9,-0.3
21.896,4.4,-8.9,-0.6
21.901,2.8,-14.3,-2.0
21.912,1.8,-18.2,-1.2
21.914,-0.8,-22.7,-0.7
21.916,-4.0,-27.2,-1.9
21.995,-5.5,-28.2,-1.4
21.997,-6.7,-24.8,0.8
22.0,-7.2,-21.5,3.0
22.001,-7.4,-17.5,3.4
22.003,-7.8,-14.3,3.3
22.097,-7.5,-11.2,3.4
22.099,-6.7,-8.5,2.7
22.102,-6.2,-5.3,2.3
22.104,-6.6,-2.9,1.3
22.109,-7.3,-1.5,-0.1
22.195,-8.0,-0.2,-1.3
22.197,-8.2,1.4,-0.7
22.198,-7.2,2.0,0.4
22.2,-5.1,-0.5,-0.0
22.202,-3.9,-3.2,-1.4
22.295,-3.4,-3.5,-1.4
22.307,-3.5,-2.2,-1.8
22.31,-4.3,-5.0,-2.1
22.312,-5.9,-14.0,-1.3
22.315,-8.3,-24.1,-0.4
22.394,-7.5,-26.4,-1.1
22.396,-4.6,-26.5,-0.8
22.398,-1.9,-24.9,-1.8
22.408,0.6,-22.8,-1.4
22.41,2.3,-20.2,-1.3
22.495,3.1,-15.4,-1.2
22.497,3.6,-11.1,-0.8
22.498,4.3,-8.3,-0.6
22.504,5.4,-6.5,-0.9
22.507,6.5,-5.4,-0.8
22.595,6.8,-4.4,-0.8
22.601,6.2,-3.1,0.1
22.603,5.5,-2.8,1.0
22.604,4.8,-4.6,0.5
22.606,4.4,-7.6,0.1
22.675,4.0,-9.4,-0.4
22.676,4.4,-11.4,-0.1
22.678,4.2,-17.2,-0.3
22.684,3.0,-20.4,-0.9
22.686,1.4,-18.8,0.4
22.81,0.4,-17.1,1.9
22.811,0.0,-17.4,3.2
22.813,0.9,-18.4,3.3
22.897,0.6,-17.5,2.3
22.899,-0.4,-14.6,1.7
22.9,-1.3,-12.0,1.5
22.902,-2.1,-10.6,1.8
22.904,-2.7,-10.0,2.1
22.905,-3.0,-8.0,2.0
22.907,-3.0,-5.4,2.2
22.995,-3.0,-3.6,2.4
22.997,-3.2,-2.3,2.1
22.998,-3.6,-1.5,1.4
23.0,-4.0,-1.2,0.7
23.011,-5.0,-1.1,-0.4
23.096,-5.9,-1.9,-0.6
23.098,-5.6,-2.0,-0.3
23.1,-4.6,-1.0,0.3
23.101,-4.9,-3.0,1.6
23.103,-7.3,-12.6,3.2
23.194,-9.7,-23.4,4.2
23.196,-10.0,-22.5,7.0
23.198,-8.2,-20.5,10.3
23.199,-5.9,-19.5,9.4
23.299,-3.6,-22.2,5.5
23.301,0.6,-22.4,3.0
23.303,3.5,-19.1,-0.6
23.304,5.2,-14.9,-2.3
23.306,4.4,-9.9,-2.6
23.395,3.9,-6.5,-3.0
23.397,5.0,-4.7,-3.8
23.398,6.7,-4.3,-4.7
23.406,7.8,-3.9,-4.7
23.417,7.7,-2.9,-3.1
23.495,7.5,-1.6,-1.2
23.497,7.2,-1.2,0.1
23.498,7.3,-2.4,1.0
23.5,7.8,-5.3,-0.1
23.502,9.2,-11.5,-1.9
23.595,8.2,-17.6,-5.0
23.596,4.6,-20.9,-8.0
23.598,1.8,-22.3,-8.9
23.6,-0.7,-22.9,-8.6
23.601,-1.0,-22.3,-6.6
23.695,0.1,-18.8,-4.6
23.702,0.3,-15.2,-3.7
23.704,0.4,-13.1,-3.8
23.706,0.3,-12.4,-3.3
23.707,-0.5,-10.4,-2.6
23.797,-0.6,-8.5,-2.2
23.803,-0.4,-7.0,-2.2
23.805,-1.3,-5.3,-2.3
23.818,-3.4,-3.4,-2.5
23.82,-5.1,-2.2,-2.1
23.895,-5.7,-1.2,-2.0
23.896,-6.5,0.5,-2.7
23.898,-6.5,-0.9,-1.1
23.904,-5.1,-3.4,-0.1
23.906,-3.9,-5.3,-0.0
23.994,-2.5,-6.5,0.5
23.996,-1.9,-7.9,1.4
23.997,-3.1,-11.3,3.2
23.999,-5.4,-16.2,5.0
24.001,-6.4,-20.6,6.1
24.095,-5.3,-23.4,6.0
24.101,-3.4,-24.7,4.5
24.102,-1.4,-22.2,4.1
24.104,0.8,-16.7,3.5
24.106,2.7,-13.4,2.7
24.195,3.6,-11.4,2.0
24.196,3.2,-9.5,0.9
24.211,3.6,-8.0,0.0
24.218,4.5,-6.5,-0.8
24.22,5.4,-4.9,-0.7
24.295,6.5,-3.4,-0.0
24.296,8.4,-2.0,0.2
24.298,10.9,-1.0,0.1
24.3,12.5,-1.3,-0.9
24.301,12.0,-4.2,-3.4
24.395,9.3,-14.1,-5.4
24.397,4.8,-25.0,-6.8
24.399,1.2,-29.7,-7.1
24.404,-2.6,-30.3,-6.6
24.405,-5.2,-27.9,-4.5
24.495,-6.1,-23.6,-2.7
24.496,-5.0,-20.9,-0.8
24.498,-5.9,-18.6,0.5
24.5,-8.1,-14.4,1.3
24.505,-9.2,-9.7,1.7
24.595,-8.2,-5.4,2.0
24.606,-6.3,-2.3,2.0
24.609,-5.3,-0.8,1.2
24.611,-5.8,-0.3,-0.2
24.623,-6.4,-0.2,-1.0
24.695,-6.3,0.7,-1.5
24.697,-5.5,0.9,-1.4
24.698,-4.3,-0.7,-1.6
24.7,-3.3,-2.1,-1.0
24.702,-3.1,-1.9,0.1
24.795,-3.6,-1.0,0.4
24.797,-3.9,-1.3,0.9
24.798,-7.7,-9.4,1.1
24.8,-14.0,-23.7,-0.4
24.802,-16.8,-29.0,4.6
24.894,-13.1,-24.0,7.4
24.896,-8.9,-22.1,3.3
24.897,-5.5,-24.2,2.4
24.899,-2.0,-22.9,1.5
24.995,0.4,-20.0,0.2
25.017,2.2,-15.6,-0.3
25.02,3.1,-11.4,-0.2
25.023,4.1,-8.4,-0.8
25.025,5.5,-7.1,-1.7
25.095,6.5,-6.1,-2.0
25.1,6.7,-4.5,-1.8
25.101,6.8,-2.8,-1.5
25.103,7.9,-1.4,-0.5
25.105,8.6,-0.7,1.1
25.195,8.4,-1.0,1.0
25.196,9.2,-2.4,-0.4
25.198,9.5,-4.2,0.4
25.2,7.3,-10.1,-1.3
25.201,0.8,-33.1,-4.4
25.269,-5.4,-39.2,-5.2
25.271,-15.0,-35.3,-4.0
25.273,-22.2,-27.9,-2.3
25.274,-13.6,-20.0,3.1
25.276,-6.6,-16.2,5.1
25.396,-7.9,-15.6,3.1
25.398,-10.5,-11.3,0.9
25.4,-8.9,-5.2,1.1
25.401,-6.2,-1.7,0.2
25.496,-5.3,-0.8,-1.7
25.499,-6.5,-2.2,-3.5
25.5,-7.8,-1.7,-3.5
25.502,-7.6,1.9,-2.6
25.504,-6.9,5.7,-1.9
25.511,-6.5,6.3,-2.2
25.595,-6.2,4.0,-3.1
25.603,-6.3,3.2,-1.9
25.605,-5.9,4.3,-0.1
25.607,-6.1,0.4,2.6
25.609,-10.4,-11.4,2.3
25.694,-16.9,-25.4,-4.1
25.696,-19.6,-33.2,0.3
25.698,-15.8,-29.2,5.3
25.7,-13.6,-24.7,4.6
25.713,-10.6,-22.8,-0.8
25.794,-6.1,-19.5,-0.7
25.795,-2.2,-15.3,-2.0
25.797,0.5,-13.2,-2.4
25.799,1.9,-11.1,-2.8
25.8,2.9,-8.9,-2.9
25.894,4.0,-7.1,-2.9
25.896,5.5,-5.6,-2.9
25.902,6.7,-4.5,-0.7
25.904,6.7,-3.9,0.8
25.905,6.2,-3.4,2.4
25.994,5.9,-4.5,2.0
25.996,4.4,-7.5,0.8
25.998,3.6,-9.9,-0.7
25.999,2.8,-14.8,-0.8
26.001,0.6,-23.9,-1.3
26.094,-2.8,-29.1,-2.2
26.1,-8.1,-27.7,-2.1
26.102,-13.1,-26.0,-2.6
26.114,-12.6,-20.7,-2.2
26.116,-7.9,-17.5,-0.6
26.198,-7.2,-17.2,-0.5
26.199,-9.3,-14.9,-1.8
26.201,-9.9,-11.2,-0.9
26.203,-8.6,-8.5,-0.2
26.204,-7.5,-7.0,-0.3
26.294,-6.4,-5.3,-0.1
26.296,-5.7,-3.4,0.8
26.298,-5.0,-1.7,1.3
26.299,-4.0,-0.8,1.4
26.301,-3.2,-0.1,1.1
26.394,-2.6,0.0,2.1
26.396,-2.5,-0.4,3.1
26.402,-2.4,-0.9,3.4
26.404,-1.9,-0.7,2.9
26.405,-2.1,-2.2,3.5
26.494,-4.3,-4.8,5.4
26.495,-5.8,-8.6,7.7
26.507,-6.1,-12.1,4.7
26.51,-6.0,-13.9,3.1
26.594,-6.8,-21.1,4.2
26.597,-7.7,-21.5,4.9
26.599,-6.6,-21.3,5.5
26.6,-5.0,-15.3,3.7
26.602,-4.2,-9.7,2.6
26.694,-3.0,-10.6,-0.4
26.696,-1.9,-14.9,-3.9
26.697,-1.6,-15.2,-3.8
26.699,-1.3,-14.6,-2.9
26.701,-0.7,-14.4,-1.3
26.794,-0.7,-13.4,-0.2
26.796,-1.2,-12.5,0.9
26.797,-1.4,-12.0,2.0
26.799,-1.1,-10.2,4.1
26.801,-0.5,-9.3,5.4
26.894,0.1,-10.2,4.6
26.896,1.9,-11.6,2.8
26.908,5.0,-6.3,3.9
26.91,5.3,-0.5,6.6
26.912,3.0,3.2,7.1
26.994,-0.1,6.9,8.5
26.996,-0.8,6.8,8.9
26.997,0.4,4.4,8.2
26.999,0.4,3.3,7.2
27.0,-0.5,3.2,6.7
27.099,-0.8,3.4,6.9
27.101,-1.3,4.2,6.8
27.103,-1.9,4.5,6.7
27.104,-0.7,3.7,6.4
27.106,1.2,3.7,6.1
27.196,1.8,3.9,6.6
27.198,0.8,4.3,7.5
27.2,-1.8,3.3,9.5
27.202,-3.2,1.8,10.3
27.297,-2.3,2.3,10.5
27.298,-1.3,3.7,7.9
27.312,-0.1,5.6,8.1
27.314,-3.8,3.1,7.4
27.326,2.3,2.5,8.8
27.328,1.5,4.6,8.9
27.408,1.7,3.5,8.5
27.409,1.7,3.8,8.4
27.411,1.1,4.9,8.4
27.413,1.3,5.5,8.6
27.414,0.6,5.4,8.6
27.492,0.5,5.2,9.8
27.494,0.9,3.6,10.1
27.495,0.9,3.3,10.2
27.497,0.2,4.3,10.0
27.597,0.8,4.6,9.8
27.599,1.0,4.5,9.4
27.601,0.6,5.2,9.2
27.603,0.6,4.9,8.9
27.604,1.2,3.6,8.8
27.606,0.8,3.7,8.7
27.694,-0.4,3.1,8.9
27.695,1.6,3.7,9.6
27.697,1.2,3.7,9.6
27.699,0.6,4.1,9.1
27.7,-0.4,4.7,8.9
27.78,0.5,3.9,8.8
27.781,0.5,4.6,8.9
27.783,-0.2,3.9,8.9
27.785,0.0,3.4,9.1
27.786,0.6,3.8,9.8
27.893,2.0,4.3,10.6
27.895,-1.0,3.2,9.4
27.896,-0.2,3.7,10.8
27.995,0.1,2.9,9.4
27.997,-1.7,2.5,9.1
27.998,-1.6,3.3,8.9
28.004,-1.6,3.4,8.5
28.006,-2.5,3.4,8.3
28.008,-1.3,3.3,8.6
28.094,-0.4,3.2,8.9
28.096,-1.4,3.2,8.7
28.098,-0.7,3.4,9.2
28.099,-1.2,3.1,8.9
28.101,-1.1,3.2,8.9
28.106,0.8,3.6,9.8
28.168,-1.2,2.7,8.4
28.17,-0.6,3.2,8.8
28.173,-0.7,3.4,8.6
28.175,-1.1,3.1,8.8
28.296,-0.9,3.1,9.2
28.297,-1.2,3.2,9.6
28.299,-0.9,3.0,10.0
28.301,-0.8,3.0,9.8
