gyro_time_list,gyro_x_list,gyro_y_list,gyro_z_list
0.0,0.0,0.0,0.1
0.002,0.0,0.0,0.1
0.004,0.1,0.1,0.0
0.005,0.7,0.1,-0.1
0.007,-0.5,0.3,-0.1
0.122,-0.5,0.1,0.0
0.127,0.1,0.0,0.0
0.129,-0.2,-0.0,0.1
0.13,-0.3,0.0,-0.0
0.247,-0.4,-0.0,-0.0
0.248,-0.5,-0.2,-0.1
0.25,-0.6,-0.1,-0.0
0.252,-0.6,0.4,-0.0
0.253,-1.0,-0.0,0.5
0.255,-1.0,0.6,0.3
0.342,-1.5,0.3,0.6
0.344,-2.7,0.5,0.9
0.347,-4.2,0.5,1.3
0.353,-5.4,0.1,1.5
0.365,-5.8,-0.0,1.7
0.43,-6.1,0.1,1.9
0.431,-6.9,0.0,1.9
0.433,-7.6,0.1,2.0
0.435,-7.4,0.1,2.4
0.436,-6.6,0.0,2.6
0.505,-5.6,-0.2,2.8
0.507,-4.6,-0.3,3.1
0.509,-4.0,-0.3,3.3
0.51,-4.2,-0.3,3.5
0.512,-4.6,-0.3,3.5
0.626,-3.9,-0.4,3.4
0.628,-2.3,-0.5,3.2
0.64,-1.4,-0.3,2.9
0.642,-1.5,0.1,2.5
0.744,-1.8,0.2,2.0
0.747,-1.6,0.3,1.3
0.749,-1.0,0.3,0.7
0.751,-0.7,0.4,0.2
0.763,-0.5,0.6,-0.3
0.766,-0.3,0.7,-0.7
0.831,0.0,0.7,-1.0
0.833,0.3,0.7,-1.3
0.835,0.5,0.7,-1.4
0.836,0.5,0.7,-1.5
0.838,0.3,0.5,-1.5
0.93,0.0,0.2,-1.4
0.931,-0.2,0.0,-1.2
0.933,-0.5,-0.1,-0.8
0.934,-0.6,-0.1,-0.4
0.936,-0.5,-0.1,0.0
1.032,-0.4,-0.2,0.5
1.033,-0.4,-0.2,0.9
1.035,-0.6,-0.2,1.4
1.036,-0.8,-0.2,1.8
1.038,-1.1,-0.1,2.2
1.141,-1.3,-0.0,2.6
1.143,-1.4,-0.1,2.8
1.156,-1.1,-0.1,3.2
1.167,-0.9,-0.4,3.3
1.169,-1.0,-0.6,3.1
1.231,-1.0,-0.9,2.6
1.236,-0.7,-1.0,2.4
1.243,-0.7,-0.6,2.1
1.245,-0.8,-0.4,2.0
1.247,-0.7,-0.3,2.1
1.326,-0.5,-0.5,2.1
1.328,-0.6,-0.6,1.9
1.329,-1.2,-0.7,1.6
1.333,-1.4,-0.6,1.4
1.341,-0.6,-0.5,1.1
1.428,0.4,-0.5,0.7
1.431,0.5,-0.5,0.4
1.433,0.0,-0.6,-0.0
1.434,-0.4,-0.6,-0.3
1.436,-0.1,-0.6,-0.6
1.541,0.6,-0.5,-1.0
1.554,0.8,-0.4,-1.5
1.563,0.4,-0.4,-2.0
1.564,0.0,-0.3,-2.6
1.566,0.0,-0.1,-3.1
1.625,0.2,0.2,-3.7
1.633,0.5,0.8,-4.0
1.635,1.0,1.3,-4.0
1.638,1.4,1.4,-3.9
1.735,1.5,0.8,-3.7
1.736,1.4,0.4,-3.6
1.738,0.8,0.3,-3.4
1.739,0.2,0.3,-3.2
1.741,-0.3,0.6,-2.9
1.833,-0.3,1.0,-2.5
1.834,0.0,1.3,-1.9
1.836,0.6,1.4,-1.3
1.838,1.1,1.4,-0.8
1.839,1.3,1.4,-0.3
1.945,0.9,1.1,0.1
1.956,0.2,0.9,0.5
1.958,-0.2,0.6,0.9
1.96,-0.3,0.2,1.2
1.961,-0.2,0.0,1.5
2.036,0.0,-0.2,1.8
2.037,-0.1,-0.4,2.2
2.039,-0.4,-0.5,2.5
2.04,-0.7,-0.9,2.5
2.042,-0.9,-0.8,2.0
2.125,-0.1,-1.1,1.1
2.126,0.4,-1.4,0.5
2.128,0.1,-1.5,0.1
2.13,-0.5,-1.5,-0.0
2.131,-0.8,-1.5,0.0
2.274,-0.9,-1.4,0.1
2.277,-0.7,-1.2,0.3
2.279,-0.5,-1.2,0.5
2.281,-0.3,-1.0,0.5
2.282,0.3,-0.8,0.6
2.356,0.9,-0.6,0.2
2.359,0.8,-0.2,-0.4
2.361,0.3,0.3,-0.9
2.362,-0.1,0.6,-1.5
2.364,0.4,1.0,-2.1
2.426,0.7,1.3,-2.5
2.431,0.8,1.8,-2.9
2.432,1.0,2.4,-3.1
2.434,1.2,2.6,-3.3
2.436,0.9,2.1,-3.5
2.529,0.3,1.5,-3.6
2.535,-0.2,1.4,-3.3
2.536,-0.4,1.3,-2.7
2.538,-0.6,1.2,-1.9
2.54,-0.6,1.1,-1.2
2.64,-0.1,1.0,-0.5
2.642,0.4,0.8,0.2
2.644,0.8,0.5,0.7
2.646,0.9,0.1,1.1
2.661,0.6,-0.3,1.4
2.725,0.5,-0.3,1.6
2.728,1.0,-0.4,1.7
2.73,1.1,-0.4,1.9
2.731,0.8,-0.4,2.0
2.733,0.3,-0.3,2.9
2.825,-0.6,-0.1,3.3
2.831,-0.8,-0.2,2.6
2.833,-0.6,-0.4,1.8
2.835,-0.6,-0.7,0.8
2.836,-0.7,-0.9,0.3
2.929,-0.7,-1.0,0.3
2.93,-1.0,-1.2,0.4
2.932,-1.1,-1.3,0.4
2.934,-1.1,-1.3,0.5
2.935,-1.0,-1.2,0.6
3.035,-0.7,-1.1,0.6
3.037,-0.5,-0.8,0.6
3.038,-0.4,-0.5,0.5
3.049,-0.2,-0.2,0.2
3.051,-0.1,0.2,-0.2
3.128,0.2,0.7,-0.6
3.13,0.5,1.1,-1.0
3.131,0.6,1.5,-1.5
3.136,0.4,1.6,-1.9
3.138,0.3,1.8,-1.9
3.256,1.0,3.2,-1.3
3.258,1.7,4.2,-2.0
3.26,1.9,3.2,-2.7
3.261,0.8,1.1,-3.1
3.325,-0.5,0.8,-3.3
3.327,-1.4,1.9,-2.8
3.328,-1.1,1.9,-2.2
3.33,-0.1,1.4,-1.6
3.332,0.9,1.3,-1.1
3.442,1.3,1.1,-0.6
3.443,1.2,0.9,-0.3
3.446,0.7,0.6,0.1
3.457,0.0,0.4,0.3
3.458,-0.4,0.1,0.6
3.528,-0.6,-0.2,0.8
3.53,-0.5,-0.3,1.2
3.534,-0.2,-0.5,1.5
3.536,-0.0,-0.7,1.6
3.538,-0.0,-0.7,2.0
3.629,0.6,-0.5,2.6
3.631,0.7,-0.5,2.7
3.635,0.0,-1.1,1.6
3.637,-0.6,-1.2,0.7
3.642,-0.6,-1.2,0.0
3.725,-0.4,-1.2,-0.0
3.727,-0.2,-1.3,0.1
3.729,-0.1,-1.2,0.4
3.731,0.0,-1.3,0.5
3.734,0.0,-1.4,0.6
3.844,-0.2,-1.2,0.7
3.845,-0.3,-0.9,0.7
3.857,-0.2,-0.6,0.6
3.858,0.1,-0.2,0.4
3.86,0.3,0.2,-0.0
3.906,0.5,0.7,-0.5
3.909,0.7,1.3,-0.9
3.918,0.3,1.6,-1.5
3.92,0.1,1.8,-1.7
3.922,0.4,3.0,-1.1
4.019,0.5,3.8,-1.3
4.021,0.9,4.1,-2.0
4.022,1.2,3.5,-2.7
4.024,0.6,2.9,-3.0
4.136,-0.2,2.9,-3.0
4.137,-0.4,3.2,-2.5
4.139,0.0,3.1,-2.0
4.141,0.5,2.7,-1.5
4.142,0.8,2.5,-1.0
4.144,1.0,2.1,-0.6
4.245,0.7,1.7,-0.2
4.257,0.2,1.2,0.1
4.258,-0.2,0.7,0.3
4.26,-0.3,0.4,0.6
4.261,-0.3,0.1,0.9
4.326,-0.2,-0.0,1.2
4.327,-0.2,-0.2,1.4
4.334,-0.3,-0.3,1.7
4.336,-0.3,-0.1,2.3
4.337,-0.2,-0.1,2.5
4.425,-0.6,-0.0,1.9
4.431,-0.9,-0.1,1.1
4.433,-0.5,-0.0,0.4
4.435,0.3,-0.2,0.1
4.436,0.4,-0.7,0.0
4.529,0.2,-0.9,0.1
4.531,-0.2,-0.9,0.2
4.533,-0.4,-1.0,0.3
4.538,-0.3,-1.1,0.3
4.54,-0.2,-0.9,0.3
4.642,0.0,-0.5,0.3
4.644,0.2,-0.2,0.2
4.646,0.4,0.2,-0.1
4.647,0.6,0.8,-0.4
4.649,1.0,1.3,-0.8
4.728,1.2,1.8,-1.1
4.73,0.7,2.1,-1.4
4.731,-0.1,2.3,-1.4
4.733,0.4,3.5,-0.3
4.735,1.6,5.1,0.1
4.825,2.9,4.6,-1.2
4.827,1.9,2.4,-2.2
4.829,0.4,1.5,-2.8
4.83,-0.4,2.4,-2.7
4.832,-0.7,2.7,-2.3
4.941,0.0,2.1,-1.9
4.943,0.9,1.9,-1.4
4.946,1.3,1.7,-1.1
4.948,1.0,1.4,-0.8
5.031,0.5,1.0,-0.5
5.033,-0.0,0.7,-0.3
5.035,-0.5,0.4,0.0
5.037,-0.8,0.2,0.3
5.038,-1.0,-0.0,0.6
5.129,-0.9,-0.2,0.9
5.131,-0.5,-0.4,1.4
5.133,-0.3,-0.4,2.1
5.134,0.2,0.3,2.7
5.136,0.2,0.5,2.9
5.23,0.2,0.0,1.5
5.233,-0.0,-0.1,0.7
5.235,0.2,-0.1,-0.3
5.236,0.3,-0.3,-0.6
5.238,-0.0,-0.7,-0.5
5.372,-0.6,-0.6,-0.3
5.374,-0.8,-0.5,-0.1
5.377,-0.9,-0.6,0.0
5.379,-1.1,-1.0,0.1
5.391,-0.9,-0.5,-0.0
5.457,-0.5,-0.0,-0.1
5.459,0.0,0.7,-0.4
5.464,0.3,1.1,-0.7
5.466,0.1,0.8,-0.8
5.467,0.4,1.4,-1.2
5.531,0.5,1.7,-1.4
5.533,0.2,1.6,-1.5
5.535,0.3,2.3,-0.8
5.536,1.2,3.5,-0.1
5.538,2.3,3.7,-1.1
5.627,2.2,2.9,-2.0
5.628,1.1,2.0,-2.5
5.63,0.2,2.0,-2.6
5.632,-0.4,2.2,-2.2
5.633,-0.2,2.2,-1.8
5.741,0.3,2.1,-1.4
5.743,0.6,2.1,-1.0
5.746,0.9,1.9,-0.7
5.758,1.0,1.6,-0.3
5.76,0.9,1.3,0.0
5.827,0.4,0.9,0.3
5.829,0.1,0.6,0.6
5.83,-0.2,0.3,1.0
5.834,-0.4,0.1,1.3
5.836,-0.4,-0.1,1.7
5.924,-0.3,-0.4,2.1
5.926,-0.8,-0.2,2.7
5.927,-1.0,0.3,3.4
5.929,-2.5,0.4,3.0
5.931,-2.4,-0.3,1.5
6.029,-1.7,-0.2,0.8
6.03,-0.7,0.0,0.3
6.032,0.1,-0.3,0.3
6.033,0.5,-0.7,0.4
6.035,0.4,-0.7,0.6
6.171,0.1,-0.7,0.7
6.173,-0.1,-0.8,0.7
6.188,-0.0,-0.6,0.7
6.19,0.5,-0.4,0.5
6.191,0.8,-0.0,0.2
6.343,1.1,0.4,-0.2
6.345,1.3,1.1,-0.6
6.347,1.8,1.8,-1.2
6.349,1.7,2.3,-1.6
6.351,0.8,2.5,-2.2
6.354,-0.1,2.5,-2.2
6.376,0.6,3.7,-1.0
6.378,1.3,4.7,-1.4
6.379,2.0,4.3,-2.4
6.386,1.4,2.6,-3.0
6.445,0.2,2.3,-3.2
6.446,-0.9,3.1,-2.8
6.448,-1.3,2.8,-2.1
6.449,-0.7,2.3,-1.4
6.546,0.4,2.2,-0.8
6.549,1.1,2.0,-0.3
6.56,1.3,1.6,0.0
6.562,1.0,1.2,0.3
6.564,0.4,1.0,0.6
6.63,-0.1,0.7,1.0
6.631,-0.3,0.5,1.4
6.633,-0.2,0.3,1.8
6.635,-0.1,0.2,2.2
6.64,0.3,-0.1,2.4
6.729,0.5,-0.3,2.7
6.731,0.8,-0.2,3.0
6.732,0.6,-0.0,2.9
6.734,-0.1,-0.6,1.1
6.736,-0.7,-0.9,0.1
6.831,-0.3,-1.1,-0.6
6.832,-0.2,-1.5,-0.7
6.834,-0.5,-2.0,-0.5
6.839,-0.8,-2.2,-0.2
6.841,-1.2,-2.3,0.1
6.934,-1.7,-2.4,0.3
6.945,-1.8,-2.1,0.5
6.947,-1.3,-1.5,0.5
6.956,-0.8,-0.9,0.4
6.957,-0.3,-0.3,0.1
7.006,0.1,0.3,-0.3
7.008,0.3,0.9,-0.7
7.013,0.5,1.4,-1.1
7.014,0.4,1.8,-1.4
7.016,-0.1,1.8,-1.9
7.121,0.0,2.0,-1.4
7.123,0.7,3.8,-0.8
7.125,1.6,4.7,-1.9
7.127,1.5,3.0,-2.5
7.236,0.7,0.6,-3.0
7.237,0.1,0.4,-2.9
7.239,-0.7,1.5,-2.2
7.24,-0.9,1.6,-1.5
7.242,-0.0,1.2,-1.0
7.244,0.8,1.1,-0.5
7.382,1.2,1.0,-0.2
7.384,1.4,0.8,0.0
7.385,1.0,0.7,0.3
7.387,0.8,0.2,0.8
7.388,0.3,-0.5,1.1
7.449,0.0,-0.7,1.5
7.454,-0.1,-0.9,1.9
7.456,-0.0,-1.2,1.9
7.458,0.1,-1.6,2.0
7.459,0.5,-0.9,2.7
7.524,0.9,-0.6,3.2
7.533,0.1,-1.0,1.5
7.537,-0.7,-1.2,0.5
7.539,-0.4,-1.0,-0.2
7.541,-0.1,-1.1,-0.2
7.636,-0.5,-1.5,0.0
7.637,-0.8,-1.7,0.2
7.644,-1.1,-1.7,0.3
7.646,-1.3,-1.8,0.3
7.657,-1.2,-1.7,0.4
7.724,-1.0,-1.4,0.4
7.725,-0.7,-1.0,0.3
7.73,-0.2,-0.5,0.2
7.733,0.1,0.1,-0.2
7.735,0.3,0.6,-0.5
7.829,0.7,1.1,-0.8
7.831,0.7,1.4,-1.1
7.833,0.3,1.4,-1.6
7.834,0.1,1.5,-1.5
7.836,0.9,2.7,-0.6
7.925,1.9,3.4,-1.2
7.926,1.8,3.2,-2.3
7.928,0.9,1.9,-2.6
7.93,-0.3,1.5,-2.7
7.931,-0.6,2.4,-2.3
8.034,-0.1,2.6,-1.8
8.037,0.7,2.3,-1.3
8.039,1.0,2.1,-1.0
8.05,1.1,1.8,-0.6
8.052,0.9,1.4,-0.3
8.127,0.5,1.0,0.1
8.129,0.1,0.5,0.4
8.13,-0.0,-0.0,0.6
8.137,-0.1,-0.4,0.9
8.138,-0.2,-0.6,1.2
8.227,-0.3,-0.8,1.4
8.228,-0.3,-1.0,1.8
8.23,-0.5,-0.6,2.6
8.232,0.6,-0.1,3.2
8.339,0.3,0.3,3.1
8.341,-0.2,-0.4,1.6
8.342,0.2,-0.6,0.7
8.344,-0.1,-0.1,-0.2
8.346,-1.0,-0.4,-0.2
8.443,-1.0,-0.8,0.1
8.445,-0.4,-0.7,0.4
8.446,-0.4,-0.9,0.5
8.458,-0.5,-1.0,0.5
8.46,-0.4,-0.9,0.5
8.525,-0.2,-0.7,0.5
8.526,0.1,-0.4,0.3
8.528,0.2,0.1,0.1
8.539,0.3,0.6,-0.3
8.541,0.6,1.1,-0.7
8.624,0.8,1.7,-1.0
8.625,0.7,2.0,-1.5
8.627,0.3,1.9,-2.0
8.629,0.2,2.6,-1.6
8.635,0.6,4.1,-0.5
8.723,1.7,4.7,-1.3
8.725,2.2,3.5,-2.4
8.727,1.1,2.4,-2.7
8.734,0.2,2.5,-2.8
8.736,-0.2,3.0,-2.4
8.835,0.0,2.8,-2.0
8.836,0.4,2.3,-1.6
8.859,0.7,2.1,-1.2
8.861,0.7,1.7,-0.7
8.863,0.6,1.3,-0.3
8.927,0.2,0.9,0.0
8.929,-0.3,0.6,0.3
8.934,-0.5,0.3,0.5
8.936,-0.6,0.1,0.8
8.937,-0.4,0.0,1.2
9.026,0.2,-0.2,1.6
9.027,0.6,-0.1,2.4
9.029,0.1,0.5,3.1
9.031,-1.2,0.5,2.7
9.032,-1.1,-0.2,1.0
9.128,0.0,0.1,0.3
9.129,0.6,0.4,-0.2
9.131,0.6,0.0,-0.2
9.132,0.3,-0.4,-0.1
9.138,-0.1,-0.4,0.1
9.319,-0.1,0.2,-0.2
9.331,0.0,0.5,-0.5
9.333,0.2,0.9,-0.8
9.342,0.4,1.3,-1.0
9.343,0.3,1.6,-1.3
9.39,-0.1,0.2,-0.2
9.392,0.0,0.5,-0.5
9.396,0.2,0.9,-0.8
9.399,0.4,1.3,-1.0
9.4,0.3,1.6,-1.3
9.431,0.0,1.7,-1.6
9.432,-0.1,1.9,-1.5
9.434,0.8,3.3,-0.4
9.436,1.9,4.5,-0.8
9.437,2.0,3.5,-2.3
9.521,1.0,1.8,-2.6
9.523,-0.1,1.8,-2.7
9.524,-0.6,2.5,-2.2
9.64,-0.4,2.6,-1.7
9.641,0.5,2.3,-1.3
9.653,1.0,2.2,-1.0
9.655,0.9,1.9,-0.7
9.657,0.6,1.4,-0.4
9.67,0.2,1.0,-0.1
9.728,-0.1,0.7,0.2
9.729,-0.2,0.4,0.5
9.731,-0.2,0.3,0.8
9.732,0.0,0.2,1.2
9.734,-0.0,0.1,1.5
9.735,-0.1,-0.1,1.9
9.832,-0.3,0.5,2.8
9.834,0.5,1.3,3.1
9.835,0.8,1.0,2.1
9.837,0.7,0.4,0.7
9.838,0.6,0.4,-0.4
9.942,0.4,0.2,-0.6
9.944,-0.2,-0.3,-0.4
9.946,-0.6,-0.4,-0.1
9.947,-0.5,-0.5,0.2
10.023,-0.5,-0.7,0.2
10.025,-0.4,-0.6,0.3
10.026,-0.3,-0.5,0.4
10.031,-0.3,-0.2,0.4
10.033,-0.1,0.1,0.4
10.104,0.2,0.5,0.2
10.106,0.5,1.0,-0.0
10.107,0.9,1.5,-0.3
10.109,0.9,1.9,-0.6
10.111,0.6,2.2,-0.9
10.317,0.3,2.3,-1.0
10.323,0.7,3.5,-0.1
10.325,2.3,5.2,-0.5
10.326,2.7,4.4,-2.2
10.379,1.6,2.1,-2.9
10.389,0.3,2.0,-3.4
10.391,-0.3,3.0,-3.0
10.392,0.1,2.8,-2.5
10.394,0.8,2.4,-2.0
10.406,1.0,2.6,-1.5
10.469,1.0,2.6,-1.0
10.47,1.1,2.3,-0.5
10.472,0.9,1.9,-0.1
10.476,0.5,1.6,0.3
10.482,0.2,1.3,0.6
10.547,-0.2,1.0,1.0
10.548,-0.5,0.7,1.3
10.55,-0.5,0.4,1.7
10.551,-0.5,0.2,2.0
10.553,-1.0,0.2,2.4
10.624,-1.9,0.4,2.9
10.629,-2.3,-0.1,2.6
10.631,-0.8,-0.7,1.6
10.633,1.2,-0.4,1.1
10.634,0.9,-0.8,0.9
10.74,-0.7,-1.5,0.9
10.742,-1.0,-2.0,0.9
10.743,-0.5,-2.2,0.7
10.758,-0.5,-2.3,0.5
10.76,-0.6,-2.3,0.4
10.823,-0.7,-2.1,0.3
10.825,-0.8,-1.8,0.1
10.828,-0.5,-1.3,-0.1
10.834,-0.2,-0.8,-0.5
10.836,-0.2,-0.3,-0.9
10.924,-0.2,0.2,-1.3
10.925,-0.2,0.8,-1.5
10.927,-0.2,1.2,-1.9
10.928,-0.5,1.6,-2.4
10.93,-0.5,1.9,-2.5
11.028,-0.0,3.2,-1.8
11.03,0.5,4.3,-2.1
11.032,1.1,3.7,-3.0
11.033,0.6,2.3,-3.1
11.035,-0.3,2.1,-3.2
11.141,-0.3,2.7,-2.6
11.143,0.2,2.6,-1.9
11.155,0.5,2.3,-1.4
11.157,0.5,2.2,-0.9
11.162,0.5,2.0,-0.6
11.317,0.6,1.5,-0.4
11.319,0.7,1.1,-0.2
11.32,0.8,0.5,0.0
11.322,0.2,-0.0,0.4
11.323,-0.5,-0.4,0.9
11.352,-0.7,-0.7,1.5
11.354,-0.1,-0.9,1.8
11.355,-0.4,-1.3,2.1
11.361,-1.3,-1.5,3.0
11.363,-1.8,-1.5,3.1
11.423,-0.8,-0.9,2.5
11.429,0.2,-0.5,1.9
11.432,0.5,-0.2,1.3
11.434,0.3,-0.7,1.0
11.435,0.3,-1.2,0.9
11.539,0.4,-1.5,0.8
11.558,0.4,-1.7,0.7
11.56,0.2,-1.8,0.6
11.562,-0.0,-1.8,0.6
11.628,-0.1,-1.7,0.6
11.632,-0.2,-1.4,0.4
11.634,-0.2,-1.1,0.2
11.636,-0.2,-0.8,-0.1
11.637,-0.0,-0.5,-0.2
11.726,0.0,-0.1,-0.6
11.728,0.0,0.4,-0.9
11.729,0.1,0.7,-1.2
11.734,-0.2,0.6,-1.7
11.736,-0.3,1.0,-1.6
11.848,0.5,2.6,-0.9
11.849,2.0,4.0,-1.7
11.851,2.1,3.5,-2.9
11.853,0.9,1.6,-3.3
11.854,-0.4,1.0,-3.5
11.939,-1.3,2.2,-3.0
11.952,-1.2,2.7,-2.4
11.954,0.0,2.4,-1.8
11.955,1.1,2.1,-1.3
11.957,1.5,1.8,-0.8
11.967,1.5,1.3,-0.4
12.02,0.9,0.7,0.0
12.021,-0.0,0.1,0.4
12.026,-0.6,-0.4,0.7
12.028,-0.7,-0.5,1.1
12.123,-0.5,-0.7,1.5
12.124,-0.4,-0.9,1.7
12.126,-0.5,-1.3,2.0
12.132,-0.2,-0.6,2.8
12.137,0.3,-0.2,3.2
12.314,-0.6,-0.7,2.1
12.316,-1.1,-0.9,1.1
12.317,-0.7,-0.4,0.4
12.319,-0.4,-0.6,0.3
12.32,-0.4,-1.1,0.4
12.415,-0.5,-1.3,0.6
12.418,-0.7,-1.4,0.7
12.419,-0.7,-1.5,0.6
12.421,-0.6,-1.5,0.7
12.423,-0.5,-1.3,0.7
12.457,-0.4,-1.0,0.7
12.458,-0.2,-0.7,0.6
12.46,0.1,-0.4,0.2
12.465,0.3,0.2,-0.3
12.467,0.7,0.7,-0.5
12.498,0.8,1.2,-0.7
12.499,0.3,1.3,-1.0
12.501,-0.2,1.6,-0.9
12.503,0.7,3.2,0.3
12.504,1.9,4.2,-0.9
12.625,1.9,4.3,-2.3
12.627,0.7,3.3,-2.9
12.629,-0.2,2.8,-3.2
12.63,-0.5,3.3,-2.9
12.741,-0.1,3.4,-2.2
12.742,0.6,2.9,-1.7
12.744,0.9,2.5,-1.3
12.746,0.8,2.2,-0.8
12.747,0.7,1.8,-0.3
12.749,0.6,1.5,0.1
12.828,0.3,1.2,0.4
12.83,0.3,1.0,0.7
12.832,0.3,0.7,1.0
12.833,0.0,0.5,1.4
12.835,-0.1,0.4,1.7
12.927,-0.2,0.1,1.9
12.928,-0.5,-0.0,2.2
12.93,-0.0,0.5,2.7
12.932,0.4,0.5,2.8
12.934,-0.4,-0.3,1.3
13.037,-0.8,-0.7,0.2
13.039,-0.3,-0.4,-0.6
13.041,0.2,-0.7,-0.6
13.053,-0.0,-1.1,-0.3
13.055,-0.4,-1.2,-0.1
13.124,-0.6,-1.1,0.0
13.13,-0.7,-1.1,0.0
13.132,-0.5,-1.0,0.0
13.134,-0.2,-0.7,0.1
13.271,-0.2,-0.4,0.1
13.273,0.1,-0.1,-0.0
13.279,0.4,0.3,-0.2
13.281,0.5,0.8,-0.5
13.282,0.9,1.3,-0.7
13.361,1.1,1.8,-1.0
13.362,0.7,2.1,-1.5
13.364,0.1,2.1,-1.6
13.365,0.2,3.5,-0.2
13.367,1.5,4.9,-0.4
13.445,2.6,4.9,-1.9
13.446,1.8,3.0,-2.5
13.452,0.1,2.1,-2.9
13.464,-0.4,2.9,-2.5
13.466,0.1,3.0,-1.9
13.528,0.6,2.5,-1.6
13.53,0.6,2.4,-1.3
13.531,0.7,2.2,-1.0
13.533,0.7,1.6,-0.7
13.538,0.5,1.2,-0.5
13.623,0.3,0.8,-0.3
13.624,0.2,0.5,-0.0
13.626,0.1,0.2,0.2
13.627,0.1,0.1,0.6
13.629,0.2,-0.0,1.0
13.732,0.1,-0.3,1.4
13.733,-0.5,-0.3,2.0
13.735,0.1,0.3,2.6
13.737,0.5,0.4,2.8
13.738,-0.1,-0.3,1.1
13.84,-0.9,-0.4,0.3
13.85,-0.5,-0.1,-0.2
13.861,-0.1,-0.4,-0.1
13.862,-0.2,-0.7,0.1
13.864,-0.3,-0.7,0.3
13.92,-0.2,-0.7,0.3
13.922,-0.2,-0.8,0.3
13.923,-0.1,-0.7,0.3
13.925,-0.1,-0.4,0.4
13.926,0.1,-0.2,0.4
14.024,0.3,0.0,0.2
14.027,0.5,0.4,-0.1
14.028,0.8,1.0,-0.5
14.031,1.0,1.5,-0.9
14.039,0.8,1.9,-1.4
14.125,0.2,2.1,-1.8
14.127,0.2,2.5,-1.4
14.129,0.5,4.0,-0.7
14.13,1.3,4.7,-1.6
14.136,1.3,3.8,-2.5
14.273,0.3,2.8,-2.9
14.286,-0.5,3.3,-3.0
14.287,-0.6,3.9,-2.5
14.298,0.0,3.7,-2.0
14.299,0.7,3.4,-1.5
14.355,1.0,3.1,-1.1
14.357,1.1,2.8,-0.6
14.359,1.0,2.5,-0.3
14.362,0.5,1.9,-0.1
14.367,0.1,1.5,0.1
14.427,-0.1,1.2,0.4
14.428,-0.1,0.9,0.7
14.43,-0.0,0.7,1.0
14.432,-0.2,0.6,1.4
14.433,-0.3,0.5,1.7
14.527,0.0,0.3,2.0
14.528,0.7,0.4,2.6
14.53,1.1,0.8,3.5
14.535,-0.2,0.7,2.9
14.537,-1.1,0.4,1.6
14.64,-0.4,0.4,0.6
14.642,0.1,-0.0,0.1
14.643,-0.1,-0.7,0.2
14.645,-0.6,-1.0,0.4
14.646,-0.9,-1.1,0.6
14.726,-0.9,-1.3,0.7
14.731,-0.8,-1.4,0.7
14.733,-0.5,-1.3,0.6
14.734,-0.2,-1.1,0.5
14.736,-0.1,-0.7,0.2
14.821,0.2,-0.3,-0.2
14.823,0.5,0.4,-0.7
14.824,0.7,1.2,-1.1
14.826,0.6,1.8,-1.6
14.913,0.1,2.2,-2.1
14.914,-0.0,2.3,-2.1
14.916,0.7,3.3,-1.4
14.917,0.9,5.2,-1.9
14.919,1.5,5.0,-2.7
15.026,0.8,2.5,-3.2
15.028,-0.2,1.4,-3.3
15.03,-0.7,2.4,-2.8
15.031,-0.7,2.7,-2.1
15.129,-0.2,2.0,-1.5
15.133,0.5,1.7,-1.1
15.135,1.0,1.7,-0.7
15.137,1.2,1.4,-0.5
15.138,1.2,0.9,-0.3
15.14,0.7,0.6,-0.1
15.257,0.2,0.3,0.1
15.259,-0.0,0.0,0.3
15.26,-0.1,-0.2,0.6
15.262,-0.2,-0.4,0.9
15.264,-0.3,-0.8,1.2
15.338,-0.8,-1.1,1.6
15.339,-0.5,-1.4,2.3
15.341,-0.6,-1.2,3.0
15.343,-1.1,-1.3,1.8
15.354,-1.1,-1.5,1.3
15.422,-0.5,-1.4,0.4
15.424,0.0,-1.7,0.1
15.425,-0.1,-2.1,0.1
15.43,-0.3,-2.2,0.4
15.432,-0.6,-2.2,0.7
15.529,-0.7,-2.3,0.8
15.531,-0.8,-2.1,0.9
15.532,-0.9,-1.6,0.9
15.534,-0.8,-1.3,0.8
15.536,-0.5,-1.0,0.5
15.62,-0.1,-0.3,0.1
15.621,-0.0,0.3,-0.5
15.623,-0.1,1.0,-0.9
15.63,-0.2,1.6,-1.4
15.632,-0.1,1.7,-1.9
15.74,0.2,1.9,-1.9
15.742,0.7,2.8,-1.4
15.744,0.9,3.9,-1.6
15.755,1.4,3.9,-1.9
15.757,1.4,2.7,-2.0
15.826,0.5,1.7,-2.2
15.827,-0.1,1.8,-2.0
15.829,-0.3,2.3,-1.5
15.834,0.3,2.3,-1.0
15.835,1.1,1.9,-0.6
15.925,1.2,1.5,-0.5
15.927,1.0,1.2,-0.4
15.928,0.7,0.9,-0.3
15.93,0.3,0.5,-0.2
15.932,0.0,0.1,-0.1
16.026,-0.1,-0.3,0.1
16.028,-0.1,-0.4,0.3
16.03,-0.1,-0.5,0.5
16.033,-0.1,-0.8,0.7
16.034,-0.4,-1.4,1.0
16.138,-0.4,-1.3,2.1
16.14,-1.1,-0.9,2.9
16.164,-1.0,-1.0,1.8
16.166,-1.3,-1.2,1.0
16.167,-0.4,-1.0,0.5
16.224,0.5,-1.1,0.3
16.232,0.7,-1.4,0.5
16.234,0.5,-1.6,0.6
16.235,0.2,-1.7,0.8
16.237,-0.1,-1.8,0.9
16.377,-0.3,-1.8,0.9
16.379,-0.3,-1.6,0.8
16.38,-0.1,-1.3,0.7
16.382,0.1,-1.0,0.5
16.384,0.5,-0.5,0.1
16.447,0.6,0.2,-0.4
16.448,0.3,0.8,-0.9
16.45,-0.2,1.2,-1.4
16.452,-0.5,1.1,-1.8
16.533,0.1,1.6,-1.1
16.535,1.0,3.0,-0.6
16.546,1.4,3.9,-0.9
16.556,1.1,3.6,-1.3
16.558,0.6,2.6,-1.8
16.631,-0.1,2.1,-2.1
16.633,-0.3,3.0,-1.8
16.635,-0.1,3.6,-1.4
16.636,0.2,3.4,-1.1
16.641,0.6,3.0,-0.9
16.727,0.8,2.9,-0.8
16.728,1.0,2.7,-0.7
16.73,0.9,2.2,-0.6
16.732,0.6,1.6,-0.7
16.733,0.3,0.8,-0.7
16.826,-0.1,0.3,-0.6
16.827,-0.4,0.1,-0.3
16.829,-0.4,-0.2,0.0
16.834,-0.5,-1.0,0.4
16.836,-0.7,-1.1,1.2
16.937,0.6,-0.5,2.4
16.948,1.0,0.0,2.4
16.949,0.7,-0.5,1.4
16.961,-0.3,-0.5,0.9
16.963,0.3,-0.2,0.6
17.025,0.3,-0.5,0.5
17.027,-0.2,-1.0,0.6
17.031,-0.5,-1.0,0.7
17.033,-0.6,-1.0,0.8
17.035,-0.9,-1.1,0.9
17.122,-1.1,-1.0,0.8
17.123,-1.0,-0.8,0.7
17.125,-0.7,-0.6,0.5
17.126,-0.5,-0.4,0.2
17.133,-0.3,-0.1,-0.1
17.224,0.1,0.2,-0.4
17.226,0.2,0.5,-0.7
17.228,0.1,0.9,-1.0
17.23,0.0,1.1,-1.1
17.231,-0.3,1.2,-0.8
17.378,0.6,2.1,0.3
17.379,0.3,3.3,0.4
17.381,1.5,3.0,0.1
17.383,1.1,1.7,-0.6
17.384,1.0,1.4,-0.9
17.446,1.2,2.2,-1.1
17.452,0.8,2.7,-1.0
17.453,0.2,2.7,-0.9
17.455,0.1,2.6,-0.9
17.457,0.3,2.5,-0.7
17.528,0.5,2.4,-0.6
17.529,0.6,2.1,-0.5
17.531,0.7,1.8,-0.3
17.533,0.7,1.5,-0.1
17.534,0.5,1.2,0.1
17.633,0.4,1.0,0.2
17.642,0.2,0.8,0.3
17.644,0.1,0.6,0.4
17.645,0.1,0.4,0.5
17.656,0.1,0.2,0.7
17.727,0.1,0.2,1.1
17.729,0.2,0.3,1.6
17.731,-0.2,0.3,1.5
17.732,-0.4,0.3,0.7
17.734,-0.6,0.4,0.0
17.827,-0.2,0.8,-0.4
17.828,0.5,0.9,-0.5
17.83,1.0,0.6,-0.5
17.831,1.0,0.2,-0.5
17.833,0.5,0.0,-0.4
17.926,-0.0,-0.0,-0.2
17.927,-0.3,-0.2,-0.1
17.929,-0.4,-0.3,-0.1
17.931,-0.3,-0.3,-0.1
17.932,-0.1,-0.2,-0.1
18.036,0.0,0.0,-0.1
18.039,0.0,0.2,-0.1
18.047,0.1,0.5,-0.0
18.059,0.3,0.6,-0.1
18.122,0.4,0.7,-0.2
18.127,0.5,0.8,-0.4
18.129,0.2,1.0,-0.5
18.13,0.2,1.0,-0.6
18.132,0.2,1.2,-0.5
18.226,0.2,1.2,-0.5
18.228,0.2,1.1,-0.4
18.238,0.2,0.9,-0.3
18.24,0.2,0.8,-0.3
18.242,0.3,0.6,-0.2
18.36,0.2,0.2,-0.1
18.361,0.0,-0.1,0.1
18.363,-0.3,-0.2,0.2
18.365,-0.5,-0.4,0.3
18.366,-0.8,-0.6,0.3
18.443,-1.0,-0.6,0.4
18.445,-1.0,-0.5,0.5
18.455,-0.9,-0.5,0.5
18.467,-0.7,-0.4,0.4
18.469,-0.8,-0.3,0.2
18.521,-1.1,-0.2,0.0
18.522,-1.3,-0.1,-0.2
18.524,-1.1,0.1,-0.3
18.526,-0.6,0.3,-0.4
18.534,-0.1,0.4,-0.5
18.623,0.4,0.5,-0.6
18.624,1.0,0.7,-0.6
18.626,1.4,0.8,-0.6
18.627,1.6,0.8,-0.7
18.633,1.4,0.9,-0.9
18.721,1.1,0.8,-1.0
18.727,0.7,0.9,-1.2
18.728,0.7,0.9,-1.2
18.73,1.1,0.9,-1.2
18.731,1.4,0.8,-1.3
18.833,1.6,0.7,-1.3
18.844,1.7,0.6,-1.2
18.855,2.4,0.6,-1.1
18.856,3.8,0.6,-1.0
18.858,5.9,0.6,-1.0
18.921,8.7,0.5,-0.9
18.926,10.3,0.4,-0.8
18.927,9.7,0.4,-0.8
18.929,7.8,0.3,-0.7
18.931,6.0,0.2,-0.6
19.05,4.4,0.0,-0.7
19.052,3.1,-0.1,-0.9
19.054,2.6,-0.2,-1.0
19.055,2.5,-0.1,-1.0
19.057,2.0,-0.1,-0.9
19.118,1.6,-0.1,-0.9
19.12,1.5,-0.1,-0.8
19.121,1.4,-0.1,-0.8
19.127,1.3,-0.1,-0.8
19.238,1.1,-0.1,-0.7
19.239,0.8,-0.2,-0.6
19.333,0.8,-0.2,-0.6
19.344,1.0,-0.2,-0.5
19.345,1.1,-0.1,-0.4
19.347,1.1,-0.2,-0.3
19.377,1.0,-0.2,-0.5
19.379,0.9,-0.2,-0.5
19.384,0.6,-0.2,-0.4
19.386,0.5,-0.2,-0.4
19.388,0.4,-0.2,-0.3
19.451,0.4,-0.1,-0.1
19.454,0.4,-0.1,-0.1
19.455,0.4,-0.1,-0.1
19.457,0.3,-0.1,-0.1
19.463,0.3,-0.1,0.0
19.521,0.2,-0.0,0.0
19.527,0.1,-0.1,-0.0
19.529,0.0,-0.1,0.0
19.531,0.1,-0.1,-0.0
19.532,0.1,-0.1,-0.0
19.637,0.0,-0.0,-0.1
19.639,-0.0,0.0,0.0
19.647,-0.1,0.0,0.0
19.649,-0.1,-0.0,0.0
19.65,-0.0,0.1,0.0
19.721,0.1,0.1,0.0
19.722,0.1,0.1,-0.1
19.728,-0.1,0.1,-0.1
19.73,-0.2,0.0,-0.0
19.732,-0.0,0.0,-0.0
19.824,-0.0,0.1,-0.0
19.829,-0.1,0.1,0.0
19.83,-0.0,0.1,0.0
19.832,-0.0,0.0,0.1
19.933,-0.1,-0.0,0.0
19.935,-0.0,0.0,-0.0
19.937,-0.0,0.0,0.0
19.939,-0.1,0.0,-0.0
19.941,-0.0,0.0,-0.1
20.029,-0.0,0.1,-0.1
20.03,0.0,0.0,-0.0
20.032,0.0,0.1,0.0
20.033,0.0,0.1,0.0
20.035,0.1,0.0,-0.1
