vertical_Accel_x,vertical_Accel_y,vertical_Accel_z,accel_time_list
-0.3,8.449,-5.728,0.0
-1.0,8.883,-5.409,0.001
-0.9,8.906,-6.13,0.003
-0.0,9.094,-5.07,0.005
0.8,8.762,-3.332,0.006
0.5,7.621,-4.977,0.075
0.3,7.97,-4.606,0.077
-0.6,8.289,-5.04,0.078
-0.1,8.47,-5.506,0.08
0.3,8.628,-5.251,0.081
0.4,8.649,-5.028,0.198
0.8,8.67,-4.806,0.199
0.8,8.723,-4.721,0.201
0.1,8.215,-5.347,0.203
0.3,8.247,-5.485,0.303
0.4,8.321,-5.177,0.305
0.5,8.426,-5.008,0.306
0.5,8.511,-5.06,0.308
0.3,8.321,-5.177,0.31
0.3,8.098,-5.157,0.321
0.3,8.268,-5.262,0.4
0.3,8.268,-5.262,0.402
0.3,8.236,-5.125,0.403
0.5,8.426,-5.008,0.405
0.1,8.406,-5.23,0.407
0.1,8.374,-5.092,0.499
-0.1,8.321,-5.177,0.5
-0.1,8.183,-5.209,0.502
-0.3,7.992,-5.326,0.504
-0.5,7.908,-5.274,0.505
-0.6,7.843,-4.998,0.599
-0.8,7.726,-4.808,0.605
-0.4,8.181,-4.266,0.608
-0.2,6.911,-5.36,0.609
-1.3,7.072,-6.049,0.611
-1.4,6.611,-3.76,0.7
3.9,5.764,-9.475,0.701
-1.3,4.974,-6.392,0.703
1.3,5.257,-4.802,0.726
2.7,5.617,-4.791,0.729
2.731,5.628,-2.846,0.799
6.09,8.375,1.134,0.801
6.874,10.334,5.529,0.803
3.531,8.828,2.654,0.804
3.097,7.342,-2.17,0.806
2.922,4.751,-6.777,0.91
3.839,4.724,-6.212,0.912
4.587,5.18,-4.926,0.914
4.959,4.95,-4.408,0.92
6.294,5.021,-4.658,0.922
6.662,4.118,-7.405,1.004
6.438,3.582,-7.295,1.006
5.556,2.764,-7.349,1.007
5.5,1.6,-8.9,1.009
5.351,1.077,-10.217,1.099
5.994,2.236,-10.898,1.101
6.434,2.885,-11.111,1.107
5.668,2.07,-10.623,1.119
5.625,1.611,-10.842,1.121
1.632,-1.36,-13.176,1.199
2.752,-0.16,-14.336,1.201
3.208,0.36,-14.444,1.203
3.612,0.04,-13.816,1.209
3.896,0.62,-13.528,1.211
3.304,-0.445,-13.748,1.299
3.88,0.16,-13.7,1.303
3.574,0.877,-13.229,1.305
2.958,1.492,-13.376,1.307
2.012,1.73,-12.505,1.309
1.242,1.578,-10.529,1.399
0.991,3.489,-9.604,1.406
0.296,5.344,-8.902,1.407
2.093,7.267,-9.153,1.409
2.638,5.54,-10.158,1.411
4.0,6.7,-7.9,1.499
8.127,6.673,-12.718,1.501
11.455,3.645,-18.636,1.513
10.291,-0.591,-17.027,1.515
11.764,-3.464,-20.909,1.517
24.862,-7.018,-19.453,1.599
24.432,-8.768,-20.289,1.602
23.902,-10.238,-21.353,1.604
24.285,-10.135,-18.432,1.605
19.866,-12.094,-14.558,1.607
15.531,-13.505,-6.425,1.701
9.889,-12.66,-4.957,1.703
5.943,-11.659,-3.472,1.708
1.788,-10.846,-3.553,1.71
-2.478,-9.88,-3.886,1.711
-5.143,-6.151,-8.346,1.799
-8.2,-4.12,-10.34,1.801
-8.119,-2.056,-12.298,1.802
-6.867,-2.087,-12.273,1.805
-6.49,-3.742,-12.741,1.807
-6.352,-6.687,-11.343,1.898
-3.039,-7.665,-10.683,1.91
1.165,-8.391,-11.696,1.912
3.352,-8.013,-13.157,1.914
9.235,-5.809,-14.704,1.917
22.955,-5.264,-23.96,1.999
26.862,-7.787,-28.117,2.001
30.73,2.209,-29.426,2.003
29.334,2.698,-25.055,2.004
25.817,4.049,-15.477,2.006
18.198,6.374,-11.721,2.1
14.208,9.806,-6.917,2.102
9.747,10.76,-3.781,2.104
5.685,10.889,-2.066,2.106
2.633,12.404,-2.951,2.112
2.599,12.592,-4.153,2.199
0.472,12.875,-1.549,2.205
0.971,13.067,-0.302,2.207
3.387,12.399,-2.594,2.208
3.478,10.421,-4.828,2.21
4.6,7.2,-8.1,2.3
7.504,3.735,-9.991,2.302
11.035,-2.822,-14.33,2.304
15.252,-10.183,-14.296,2.31
17.357,-17.348,-14.787,2.311
23.775,-22.4,-15.736,2.399
20.836,-31.3,-14.025,2.401
12.783,-24.4,-10.309,2.402
11.445,-14.9,-9.242,2.404
13.151,-11.327,-8.292,2.406
9.548,-13.5,-2.264,2.499
4.98,-11.2,-1.14,2.501
2.328,-8.0,-1.304,2.502
0.94,-6.0,-1.42,2.504
-0.476,-4.924,-1.561,2.506
-3.508,-4.192,-0.813,2.604
-6.829,-3.971,-0.71,2.606
-6.62,-4.28,-0.683,2.607
-5.739,-5.661,1.848,2.609
-7.653,-6.447,4.665,2.621
-8.422,-9.349,4.022,2.702
-5.865,-9.247,1.865,2.704
-2.065,-9.847,-5.435,2.705
-0.91,-9.831,-10.89,2.708
-6.594,-9.402,-8.073,2.799
12.457,-20.752,-3.766,2.802
17.163,-34.954,-5.039,2.804
-9.725,-35.158,-26.484,2.806
40.846,-26.649,-6.62,2.808
7.151,-17.534,-4.253,2.898
2.749,-21.166,6.753,2.9
13.553,-20.202,4.04,2.902
15.491,-12.628,0.326,2.904
12.594,-11.196,-2.181,2.905
9.003,-12.971,-1.694,2.998
8.196,-9.905,-1.341,3.0
7.217,-7.129,-4.266,3.009
5.637,-4.129,-8.326,3.01
4.347,0.733,-9.573,3.021
-0.499,-1.514,-10.303,3.099
-1.722,-4.887,-11.333,3.101
0.051,-9.52,-12.254,3.104
0.012,-10.163,-11.335,3.106
-1.603,-9.959,-8.891,3.108
-6.5,-15.396,-0.428,3.2
-5.1,-28.236,13.952,3.202
-1.7,-32.024,30.868,3.203
-4.3,-18.212,34.584,3.205
-7.7,-13.5,19.5,3.207
1.498,-17.224,22.534,3.299
-1.256,-17.289,27.089,3.301
-2.5,-10.54,25.72,3.302
1.184,-9.295,18.184,3.304
2.076,-7.105,14.636,3.305
1.86,-8.776,11.668,3.399
-1.4,-7.64,11.52,3.401
-4.48,-5.892,10.956,3.402
-5.04,-3.536,9.348,3.414
-4.5,-0.32,8.76,3.416
-6.287,-1.461,7.578,3.498
-3.887,-1.861,7.378,3.5
-2.417,-2.152,8.696,3.501
-5.174,-1.422,8.957,3.506
-6.23,-2.591,6.817,3.508
-3.966,-4.278,5.475,3.599
2.347,-1.62,2.678,3.606
10.573,4.796,-2.015,3.608
17.273,0.096,-0.015,3.61
21.799,-8.788,9.591,3.613
13.151,-11.445,22.545,3.699
22.604,-7.98,19.98,3.7
21.624,-4.582,12.882,3.702
15.818,-3.012,12.812,3.704
11.755,0.375,11.625,3.705
10.144,-3.455,6.085,3.799
9.987,-3.609,3.271,3.8
9.976,-5.545,0.575,3.812
6.715,-6.018,-3.638,3.823
3.007,-4.109,-8.369,3.825
-1.261,-8.121,-9.781,3.9
-2.257,-8.461,-10.792,3.902
-0.682,-8.933,-9.099,3.903
0.874,-9.386,-7.779,3.905
4.842,-10.776,-3.464,3.907
11.395,-12.016,2.184,4.0
18.539,-14.451,11.349,4.002
31.444,-9.111,23.611,4.006
27.507,-5.467,26.047,4.008
24.811,-1.278,30.678,4.01
26.876,-2.003,18.403,4.1
20.289,-4.656,13.189,4.101
18.657,-3.426,12.493,4.103
15.048,1.406,12.694,4.105
8.193,5.667,11.318,4.111
7.173,5.794,8.461,4.199
4.382,6.227,7.535,4.21
0.371,6.186,7.943,4.213
-4.331,6.478,8.324,4.215
-10.002,6.792,7.882,4.225
-9.806,4.64,11.321,4.302
-10.198,5.153,11.26,4.303
-8.194,7.242,10.872,4.305
-4.371,6.957,10.814,4.307
-1.424,8.927,10.763,4.399
3.831,7.592,12.196,4.4
14.227,3.48,14.29,4.407
26.318,-2.745,15.378,4.408
21.584,-4.888,28.22,4.41
18.23,-3.009,33.291,4.503
23.234,-2.563,31.637,4.504
19.323,-7.101,23.299,4.506
16.818,-9.97,16.73,4.508
9.841,-7.646,15.464,4.509
7.612,-4.104,13.906,4.598
5.671,-6.057,10.986,4.609
3.551,-8.084,8.676,4.611
1.353,-10.351,6.527,4.613
-2.11,-11.863,5.145,4.614
-2.185,-10.026,7.762,4.699
-2.998,-11.289,5.666,4.704
-4.136,-11.181,5.379,4.706
-3.004,-9.521,6.568,4.708
-0.177,-8.283,9.826,4.709
1.93,-6.251,11.123,4.798
3.051,-4.045,12.283,4.8
5.798,-2.411,13.434,4.802
10.655,1.377,19.115,4.803
17.217,6.585,24.428,4.805
26.472,1.545,18.998,4.898
29.379,5.957,19.983,4.9
27.211,10.421,18.109,4.905
20.891,7.783,13.853,4.907
19.685,6.07,9.868,4.91
17.643,6.752,1.0,5.003
12.27,7.369,0.3,5.004
9.054,6.934,0.8,5.008
6.057,6.948,1.7,5.01
1.971,8.607,3.1,5.013
-0.945,10.361,5.229,5.099
-5.008,12.455,5.262,5.101
-8.995,14.192,3.799,5.102
-9.983,15.89,3.777,5.108
-7.122,16.68,4.964,5.11
0.31,16.749,4.312,5.199
5.837,15.016,5.204,5.201
10.557,13.114,5.829,5.206
11.201,12.656,7.711,5.213
25.699,9.344,10.289,5.214
31.492,9.111,14.119,5.298
27.396,7.56,20.231,5.3
25.529,9.317,19.955,5.302
26.234,2.577,18.109,5.303
24.175,-3.077,13.514,5.315
14.34,0.887,12.549,5.398
10.438,-0.979,9.294,5.4
8.651,-3.017,7.077,5.402
8.032,-5.277,6.23,5.404
6.151,-7.717,4.977,5.406
2.97,-7.084,7.57,5.498
-0.719,-10.798,7.681,5.5
-3.044,-12.207,7.756,5.503
-3.874,-11.091,8.326,5.509
-3.735,-8.958,9.265,5.511
-1.249,-4.598,10.567,5.598
0.971,-3.157,8.714,5.599
5.953,2.906,8.702,5.601
13.133,14.765,10.455,5.603
26.786,29.271,9.557,5.604
29.316,34.833,2.678,5.698
24.808,40.716,-13.961,5.704
12.2,27.7,-8.3,5.706
9.412,18.924,0.208,5.722
7.976,16.751,1.384,5.725
9.809,14.574,-1.852,5.804
6.0,13.4,-3.4,5.807
3.843,11.37,-1.761,5.809
2.557,10.53,-0.839,5.81
0.87,9.291,-1.317,5.812
-0.994,7.424,-0.655,5.898
-4.165,5.139,-3.812,5.9
-8.263,2.947,-7.431,5.901
-13.482,3.273,-7.765,5.908
-12.267,2.531,-7.494,5.909
-5.459,5.2,-8.535,5.998
-2.629,7.3,-9.818,5.999
-2.257,8.267,-10.961,6.001
0.884,8.067,-10.596,6.003
13.186,5.374,-13.538,6.098
42.133,11.147,-14.256,6.1
36.308,20.632,-18.631,6.101
40.686,15.074,-8.038,6.12
36.575,7.305,-0.108,6.123
19.525,10.582,-5.458,6.2
15.893,6.691,-1.069,6.201
13.393,4.491,0.931,6.204
10.413,4.591,2.071,6.205
7.725,6.782,2.942,6.207
6.952,8.024,0.862,6.298
6.344,5.998,1.819,6.3
3.744,5.198,3.519,6.301
1.854,5.663,3.771,6.303
2.165,5.228,4.124,6.305
1.907,7.295,2.295,6.398
1.913,7.719,2.719,6.4
2.678,7.544,1.044,6.403
2.945,7.082,-0.618,6.405
4.924,7.697,-1.403,6.406
10.447,6.265,-4.765,6.498
15.131,5.943,-8.71,6.5
20.484,4.778,-17.645,6.52
25.073,3.737,-21.704,6.522
27.696,-0.88,-24.686,6.524
28.184,-3.396,-17.433,6.598
21.843,-1.261,-14.833,6.6
20.651,-0.663,-11.867,6.601
17.127,-3.657,-12.467,6.603
11.408,-5.102,-11.433,6.608
8.8,-5.92,-10.06,6.698
5.6,-5.24,-11.32,6.7
1.9,-4.9,-11.7,6.701
-2.7,-5.34,-10.62,6.703
-9.504,-5.029,-9.351,6.705
-13.244,-3.856,-14.178,6.797
-13.93,-2.37,-14.652,6.799
-8.848,-1.952,-15.559,6.801
-4.893,-3.207,-17.637,6.802
-2.041,-4.559,-16.396,6.804
-1.804,-11.374,-10.787,6.898
5.404,-9.426,-13.113,6.91
28.065,-9.291,-17.796,6.913
35.422,-7.93,-16.965,6.914
32.343,1.439,-17.73,6.916
33.655,-0.547,-24.808,6.998
25.39,3.794,-16.384,7.0
22.292,5.555,-11.047,7.005
17.749,6.269,-7.318,7.006
13.629,5.657,-4.586,7.008
8.833,5.863,-6.716,7.098
7.333,7.239,-5.41,7.1
5.967,7.602,-3.525,7.101
3.1,7.7,-1.5,7.103
-0.733,9.037,0.016,7.104
-1.32,10.876,-2.498,7.198
-1.049,11.261,-2.155,7.199
-1.076,10.869,-3.122,7.201
-2.282,10.002,-4.692,7.203
-0.998,8.922,-4.61,7.204
0.715,9.537,-4.418,7.298
8.075,9.237,-4.898,7.303
23.419,1.647,-14.752,7.305
34.619,-9.741,-15.985,7.307
28.77,-12.115,-15.804,7.308
35.322,-14.859,-12.829,7.423
25.263,-17.246,-11.139,7.424
18.016,-11.9,-8.588,7.426
16.216,-9.8,-6.188,7.428
12.312,-10.0,-4.216,7.429
7.3,-8.388,-3.384,7.507
2.8,-7.072,-2.896,7.509
-0.5,-6.732,-2.276,7.511
-2.8,-6.572,-3.896,7.512
-4.4,-6.348,-4.664,7.514
-5.3,-5.044,-4.492,7.519
-6.087,-4.062,-5.077,7.596
-6.383,-4.55,-5.231,7.598
-5.042,-5.525,-4.916,7.6
-4.273,-6.218,-4.781,7.612
-3.52,-6.8,-5.64,7.672
-3.947,-7.667,-6.127,7.674
-1.007,-9.467,-6.547,7.675
8.58,-12.3,-7.44,7.677
30.013,-14.593,-18.667,7.797
31.588,-22.97,-17.338,7.798
29.282,-18.188,-20.51,7.8
32.81,-10.602,-18.852,7.808
25.815,-14.593,-11.048,7.899
18.759,-8.47,-7.893,7.902
13.933,-5.533,-5.633,7.904
9.504,-3.048,-3.237,7.905
6.256,0.578,-1.956,7.907
3.859,4.03,-0.793,7.909
2.8,5.3,-2.3,7.998
2.13,6.568,-2.346,7.999
0.783,8.871,-3.148,8.001
-0.832,10.887,-3.825,8.003
-1.537,10.526,-5.05,8.014
-0.18,5.868,-8.224,8.098
1.1,4.26,-7.68,8.104
3.86,2.584,-6.812,8.106
10.14,-2.104,-6.328,8.112
19.98,-12.348,-6.636,8.114
27.66,-21.796,-4.472,8.198
26.08,-24.928,-0.196,8.199
26.54,-31.584,5.812,8.203
18.54,-25.744,4.692,8.205
14.96,-17.396,0.328,8.21
16.79,-10.748,2.362,8.298
13.167,-11.667,3.767,8.299
9.209,-10.817,3.914,8.301
6.845,-8.556,2.919,8.303
5.136,-7.239,2.705,8.304
4.216,-6.719,2.227,8.422
1.982,-7.09,2.248,8.424
0.061,-7.194,2.258,8.426
-2.024,-6.222,3.759,8.438
-5.277,-4.187,6.015,8.44
-7.612,-7.846,6.784,8.525
-8.625,-8.393,5.667,8.527
-7.046,-6.799,4.638,8.529
-5.506,-6.273,3.092,8.53
-3.701,-5.329,3.232,8.532
2.658,-4.884,2.81,8.533
7.312,-5.549,4.41,8.595
26.382,-8.127,5.335,8.597
31.109,-15.674,8.052,8.599
32.796,-26.513,12.374,8.6
27.555,-22.582,18.118,8.698
20.539,-14.976,10.324,8.7
14.703,-10.521,7.179,8.702
12.966,-7.493,7.074,8.703
10.634,-4.207,4.226,8.705
8.401,-3.273,-0.314,8.798
7.639,-2.281,-1.448,8.8
7.995,-1.134,-1.028,8.812
6.061,0.081,-2.352,8.814
3.521,1.036,-6.089,8.825
3.365,-2.328,-8.424,8.898
1.629,-3.886,-8.643,8.899
-1.544,-9.902,-12.881,8.901
-0.79,-12.265,-16.752,8.903
3.077,-12.031,-13.086,8.908
8.889,-17.545,-3.629,8.997
17.642,-20.909,5.629,8.999
21.681,-19.907,13.671,9.001
23.17,-17.352,21.443,9.002
21.781,-13.907,25.871,9.004
30.956,-7.892,23.68,9.099
22.656,-4.292,21.88,9.101
17.592,-6.544,12.76,9.105
15.848,-6.036,10.24,9.112
11.717,-1.254,10.787,9.114
8.521,3.878,9.428,9.198
6.486,4.223,8.418,9.21
5.117,4.015,7.899,9.213
3.858,3.857,7.45,9.215
1.602,3.925,6.712,9.217
-0.22,-0.863,9.865,9.297
-2.004,-2.771,11.451,9.299
-5.074,-2.406,9.958,9.301
-8.679,-0.483,8.725,9.302
-7.638,4.274,14.585,9.398
-6.874,2.717,16.877,9.4
-2.238,2.874,15.185,9.403
5.336,4.357,12.809,9.404
15.032,4.921,9.096,9.406
28.81,-3.769,12.465,9.522
32.359,-5.122,14.639,9.524
29.241,-10.278,12.661,9.526
37.561,-10.816,9.092,9.527
31.651,-14.837,6.047,9.529
25.416,-12.49,13.506,9.599
19.298,-10.939,9.437,9.618
13.655,-7.253,6.208,9.62
10.371,-7.043,3.214,9.623
8.255,-8.253,-0.592,9.625
5.486,-8.871,-3.343,9.627
1.988,-9.033,-5.38,9.629
-2.452,-10.78,-1.893,9.695
-4.068,-10.838,-2.682,9.697
-3.92,-11.319,-2.875,9.699
-1.276,-12.869,0.722,9.797
-0.971,-11.514,1.743,9.8
0.918,-9.502,3.192,9.802
5.404,-9.145,5.32,9.803
12.694,-6.633,12.669,9.805
24.54,-1.78,13.7,9.897
29.418,1.798,14.289,9.899
31.373,5.053,16.367,9.901
30.162,6.642,14.911,9.902
24.418,6.798,13.389,9.904
24.024,-0.132,1.5,9.998
21.304,2.328,1.0,10.002
16.44,4.58,0.7,10.005
11.612,5.884,0.4,10.007
9.072,6.104,-0.1,10.012
7.423,6.069,0.492,10.097
5.462,6.285,2.246,10.099
2.869,6.508,4.377,10.101
-0.192,6.923,5.931,10.104
-4.977,8.069,4.692,10.106
-6.216,7.409,6.076,10.197
-6.335,8.264,6.795,10.199
-6.689,8.427,8.449,10.201
-5.3,8.3,9.4,10.203
-0.61,9.599,9.286,10.209
2.044,10.759,9.126,10.301
14.872,8.579,11.663,10.303
36.729,3.392,14.205,10.304
29.282,3.191,17.643,10.306
35.963,1.439,16.551,10.318
29.834,3.813,22.932,10.397
23.615,-2.432,18.07,10.404
18.421,-6.017,12.057,10.406
13.019,-5.755,8.362,10.407
9.585,-4.568,6.03,10.409
6.66,-3.31,6.974,10.497
4.948,-5.288,6.052,10.499
3.068,-7.308,4.299,10.504
0.332,-8.292,1.801,10.505
-2.77,-8.342,0.27,10.507
-2.89,-9.739,1.567,10.597
-2.388,-9.547,2.2,10.599
-1.471,-8.718,3.7,10.6
-0.549,-6.904,4.567,10.602
2.853,-4.712,6.4,10.603
7.897,1.903,10.747,10.697
12.752,5.648,12.576,10.699
17.064,13.036,16.287,10.7
20.459,16.841,13.699,10.712
23.389,23.511,11.607,10.714
25.576,19.765,1.724,10.801
16.704,16.939,1.163,10.802
13.169,10.086,3.998,10.804
13.698,7.38,4.869,10.806
12.571,8.706,2.529,10.807
8.823,9.843,0.821,10.896
7.041,9.081,0.974,10.898
7.314,5.771,2.143,10.923
5.891,4.597,2.014,10.924
4.002,4.49,1.352,10.997
2.454,4.751,1.543,10.999
2.183,4.994,1.629,11.001
1.972,4.902,0.99,11.002
1.256,4.341,0.195,11.008
1.343,3.879,-0.783,11.097
1.866,4.517,-1.194,11.099
2.191,5.404,-1.323,11.1
1.502,5.749,-0.619,11.124
1.262,2.919,0.545,11.126
7.32,-2.981,3.353,11.197
11.098,-9.492,4.575,11.199
30.775,-5.599,-0.766,11.2
23.018,-4.173,-0.873,11.205
22.998,-3.892,-0.525,11.207
24.586,-0.229,1.543,11.301
21.245,-1.796,4.18,11.303
14.9,0.3,5.4,11.305
10.702,1.318,5.408,11.306
9.749,-0.859,4.996,11.308
7.657,-2.061,6.43,11.396
4.17,-2.583,4.891,11.398
1.8,-1.8,3.9,11.4
1.161,-1.035,3.217,11.401
2.198,0.113,3.551,11.403
3.995,-0.486,3.68,11.497
4.377,-0.116,3.594,11.498
4.238,0.673,2.765,11.513
4.898,0.826,2.172,11.515
8.203,0.611,2.692,11.524
12.252,-0.606,6.161,11.6
16.349,-2.198,8.113,11.602
18.787,-2.747,6.841,11.604
17.433,-0.833,4.733,11.605
15.989,-0.056,4.389,11.607
13.886,-0.743,6.168,11.697
10.907,-0.328,5.516,11.698
8.378,0.189,4.778,11.704
6.758,0.47,5.703,11.705
5.365,1.041,6.419,11.707
4.247,3.879,5.056,11.796
4.131,3.047,4.532,11.798
3.921,2.765,4.455,11.799
3.123,3.081,3.27,11.802
3.582,3.46,2.319,11.804
4.578,3.387,2.561,11.907
4.461,3.457,2.07,11.919
4.757,2.874,2.222,11.921
5.448,3.909,3.526,11.923
5.135,5.461,5.083,11.925
1.981,7.432,4.973,11.997
2.871,10.116,5.646,11.998
8.877,14.105,7.322,12.0
8.973,13.579,6.072,12.008
6.014,12.511,2.464,12.01
2.373,11.618,-0.573,12.097
0.826,10.99,2.24,12.098
1.015,10.379,3.285,12.1
0.397,9.324,1.803,12.102
-0.539,9.215,-0.361,12.103
0.013,9.652,-2.368,12.197
1.077,9.41,-2.106,12.198
0.562,8.749,-1.844,12.2
0.203,8.313,-1.742,12.202
1.429,9.016,-1.377,12.203
0.251,10.409,-2.744,12.297
0.038,10.902,-3.611,12.298
0.74,10.32,-2.8,12.3
0.224,9.596,-2.578,12.302
0.449,9.191,-3.556,12.307
3.253,8.843,-2.779,12.397
2.02,8.929,-2.73,12.398
1.241,8.314,-4.711,12.4
1.601,7.457,-4.552,12.401
0.322,7.011,-3.578,12.403
0.307,7.333,-3.853,12.497
0.84,7.3,-5.12,12.498
0.589,7.744,-5.711,12.5
-0.082,7.889,-4.742,12.501
0.696,8.076,-2.668,12.503
0.404,7.522,-4.836,12.596
0.66,7.9,-4.88,12.598
-0.384,8.178,-4.024,12.6
0.702,8.511,-6.418,12.601
1.589,8.344,-5.211,12.697
0.48,7.7,-5.14,12.698
-0.033,7.533,-5.233,12.7
0.731,8.156,-4.549,12.702
-0.484,8.278,-6.224,12.704
-0.322,7.733,-5.957,12.778
-0.548,7.673,-5.186,12.779
0.535,7.747,-5.329,12.781
-1.103,7.455,-6.429,12.783
0.888,8.668,-4.971,12.784
-0.493,8.333,-6.759,12.9
-0.934,7.932,-6.197,12.902
0.1,7.0,-6.8,12.904
-0.634,7.332,-6.497,12.906
-0.739,7.204,-6.547,12.998
-0.026,7.169,-6.564,13.0
0.664,7.622,-6.18,13.002
-0.116,8.221,-5.457,13.008
-0.097,8.114,-5.625,13.01
0.773,7.364,-6.956,13.022
0.953,6.521,-6.443,13.096
1.864,9.004,-3.414,13.098
-1.203,8.255,-7.329,13.1
-0.875,8.412,-6.014,13.101
-0.081,8.422,-5.171,13.103
-0.284,7.825,-5.757,13.196
-0.771,7.657,-5.486,13.198
0.213,7.68,-5.286,13.2
0.357,7.914,-5.471,13.201
-0.23,7.695,-6.257,13.203
0.475,7.788,-5.486,13.296
0.099,7.852,-5.643,13.299
0.077,7.985,-5.6,13.3
0.421,7.919,-5.686,13.302
0.22,7.77,-6.029,13.304
1.282,8.111,-5.358,13.4
1.309,7.844,-5.671,13.402
0.809,7.944,-5.671,13.403
1.309,7.844,-5.671,13.416
1.2,7.9,-5.6,13.418
0.987,7.833,-5.593,13.501
0.722,7.911,-5.778,13.503
0.884,8.022,-5.476,13.505
1.073,7.867,-5.487,13.506
1.02,7.6,-5.36,13.508
