gyro_time_list,gyro_x_list,gyro_y_list,gyro_z_list
0.0,-0.0,-0.1,-0.0
0.001,0.0,-0.1,-0.0
0.003,2.6,-0.9,-0.3
0.005,-0.4,-0.2,0.4
0.133,-0.3,0.3,0.0
0.134,-0.3,-0.2,-0.4
0.136,0.1,-0.0,0.0
0.137,-0.2,0.3,0.2
0.237,-0.0,0.0,-0.1
0.238,-0.0,0.1,-0.0
0.24,-0.0,0.2,0.1
0.241,-0.0,0.1,0.0
0.317,-0.0,0.0,-0.0
0.32,-0.1,0.0,-0.0
0.322,-0.1,0.0,0.0
0.33,-0.1,0.0,0.0
0.422,-0.2,0.1,0.1
0.424,-0.3,0.1,0.2
0.426,-0.4,0.2,0.2
0.537,-0.6,0.3,0.3
0.54,-1.3,0.5,0.5
0.542,-2.0,0.7,0.7
0.546,-3.2,0.8,0.8
0.548,-4.6,1.1,1.0
0.632,-4.8,1.5,1.4
0.633,-4.5,1.6,1.5
0.635,-4.3,1.6,1.6
0.637,-4.3,1.8,1.7
0.741,-4.6,2.2,2.2
0.75,-5.5,2.4,2.5
0.752,-6.4,2.6,2.9
0.764,-6.2,2.6,3.1
0.825,-4.0,2.4,4.0
0.827,-3.1,2.3,4.3
0.828,-2.9,2.4,4.7
0.833,-2.9,2.7,4.9
0.93,-3.0,2.8,4.7
0.932,-2.9,2.5,4.3
0.945,-2.5,2.0,3.7
0.947,-1.3,1.6,3.2
1.033,0.9,1.6,1.7
1.035,0.5,1.7,1.3
1.037,0.2,1.5,1.0
1.039,-0.2,1.3,1.0
1.142,-1.6,0.9,1.4
1.144,-1.8,0.4,1.4
1.155,-1.6,0.0,1.4
1.157,-1.2,-0.1,1.3
1.233,-0.6,-0.1,0.7
1.234,-0.3,-0.2,0.4
1.236,-0.2,-0.2,-0.0
1.242,-0.2,-0.3,-0.4
1.33,-0.5,-0.6,-1.0
1.331,-0.6,-0.7,-1.3
1.333,-0.5,-0.7,-1.5
1.335,-0.4,-0.9,-1.7
1.434,-0.1,-1.0,-2.0
1.435,0.0,-1.0,-2.0
1.437,0.1,-1.1,-2.0
1.439,0.2,-1.2,-2.0
1.548,0.3,-1.2,-2.0
1.56,0.4,-1.1,-1.9
1.562,0.4,-1.1,-1.9
1.563,0.4,-1.0,-1.8
1.629,0.5,-0.7,-1.5
1.63,0.5,-0.6,-1.3
1.637,0.5,-0.5,-1.2
1.638,0.5,-0.4,-1.0
1.734,0.3,-0.3,-0.6
1.736,0.3,-0.2,-0.4
1.738,0.3,-0.0,-0.2
1.74,0.3,0.2,0.1
1.829,0.3,0.5,0.5
1.83,0.3,0.6,0.7
1.832,0.3,0.8,0.9
1.838,0.3,0.9,1.0
1.953,0.4,1.2,1.2
1.955,0.5,1.3,1.3
1.965,0.5,1.3,1.3
1.966,0.6,1.3,1.3
2.036,0.6,1.2,1.3
2.038,0.6,1.1,1.2
2.039,0.5,1.1,1.1
2.045,0.3,0.9,1.0
2.133,-0.1,0.4,0.6
2.135,-0.4,0.4,0.4
2.137,-0.6,0.4,0.2
2.138,-0.7,0.3,0.1
2.242,-0.8,0.1,-0.1
2.244,-0.8,-0.0,-0.1
2.25,-0.8,-0.1,-0.1
2.252,-0.7,-0.2,-0.2
2.339,-0.5,-0.2,-0.2
2.341,-0.4,-0.1,-0.2
2.342,-0.2,-0.1,-0.2
2.344,-0.1,-0.1,-0.2
2.433,0.1,-0.0,-0.1
2.435,0.1,-0.0,-0.1
2.437,0.1,0.0,-0.1
2.438,0.1,0.0,-0.1
2.53,0.0,0.0,-0.1
2.532,-0.0,-0.0,-0.1
2.533,-0.1,-0.0,-0.1
2.64,-0.1,0.0,-0.1
2.643,0.1,0.0,-0.0
2.645,0.1,0.1,0.0
2.646,0.2,0.2,0.1
2.736,0.2,0.2,0.2
2.74,0.3,0.2,0.2
2.743,0.3,0.2,0.1
2.745,0.3,0.2,0.1
2.83,0.3,0.2,0.0
2.833,0.2,0.2,-0.1
2.835,0.2,0.2,-0.1
2.837,0.1,0.3,-0.1
2.931,0.1,0.2,-0.2
2.935,0.3,0.1,-0.3
2.936,0.2,0.0,-0.5
2.939,0.1,-0.2,-0.6
3.043,0.1,-0.3,-0.7
3.046,0.4,-0.3,-1.0
3.048,0.4,-0.3,-1.0
3.058,0.7,-0.2,-0.9
3.127,1.2,-0.0,-0.9
3.134,1.4,0.3,-0.6
3.137,1.3,0.3,-0.6
3.139,1.6,0.1,-0.6
3.232,2.2,-0.3,-0.4
3.235,0.8,-0.4,-0.7
3.236,-0.1,-0.4,-1.0
3.238,-0.5,-0.5,-1.0
3.326,-0.5,-0.6,-1.1
3.329,-0.5,-0.8,-1.0
3.331,-0.4,-0.9,-1.0
3.333,-0.3,-0.9,-1.0
3.443,-0.4,-1.0,-1.1
3.446,-1.0,-1.5,-1.4
3.462,-1.6,-1.6,-1.6
3.464,-2.2,-1.7,-1.7
3.53,-2.7,-1.6,-1.6
3.534,-1.2,-0.8,-0.5
3.539,-0.0,0.2,0.9
3.54,0.8,-2.0,-0.8
3.633,2.8,-2.2,-1.1
3.638,2.5,-1.3,-1.1
3.64,2.9,-1.3,-0.8
3.642,2.5,-1.3,-0.8
3.736,2.0,-1.0,-0.6
3.739,0.7,-0.8,-0.7
3.741,0.0,-0.6,-0.7
3.742,-0.5,-0.5,-0.8
3.845,-0.6,-0.4,-1.3
3.858,-0.3,0.6,-1.4
3.86,-0.4,0.5,-1.2
3.862,-0.6,0.4,-1.0
3.927,-0.9,0.1,-0.5
3.937,-1.9,-0.2,0.3
3.938,-2.4,-0.5,0.4
3.94,-3.1,-0.9,0.1
4.03,-3.6,-1.1,0.3
4.033,-0.7,1.7,-0.1
4.035,0.3,0.4,-1.5
4.036,0.7,0.0,-1.1
4.155,1.1,0.2,-0.9
4.158,-0.2,-0.4,-0.5
4.16,-0.5,-0.5,-0.2
4.252,-1.2,-0.8,1.0
4.254,-3.3,-2.9,4.1
4.266,0.3,0.1,0.5
4.268,1.3,2.1,-0.9
4.27,0.9,1.3,-0.1
4.271,0.6,-0.3,-0.2
4.323,0.4,0.4,-0.2
4.328,0.3,0.7,0.1
4.432,0.2,0.2,0.2
4.433,0.1,-0.1,0.4
4.437,0.2,0.1,0.8
4.438,0.1,0.3,0.9
4.532,0.2,0.4,1.0
4.534,2.0,1.3,-0.4
4.538,2.6,1.8,1.0
4.543,2.8,0.4,1.2
4.636,2.4,0.3,1.5
4.648,1.4,0.3,1.6
4.661,0.6,0.2,1.3
4.663,0.6,0.3,1.2
4.73,1.0,0.4,1.2
4.732,1.7,0.4,1.1
4.739,2.3,0.4,0.7
4.74,2.2,0.4,0.4
4.827,2.0,0.3,0.2
4.829,1.8,0.2,-0.1
4.832,1.4,0.1,-0.3
4.834,1.0,0.0,-0.3
4.941,0.7,0.0,-0.3
4.943,0.5,0.0,-0.2
4.946,0.3,0.0,-0.1
4.947,0.3,0.0,-0.0
5.03,0.2,0.0,0.0
5.031,0.1,0.0,0.0
5.035,-0.0,0.0,0.0
5.036,-0.0,0.0,0.0
5.126,-0.0,0.0,0.0
5.136,0.0,0.0,0.0
5.139,0.0,0.0,0.0
5.141,0.0,0.0,0.0
5.232,0.1,0.0,0.0
5.233,0.0,0.0,0.0
5.236,0.0,0.0,0.0
5.238,0.0,0.0,0.0
5.336,0.0,0.0,-0.0
5.347,0.0,0.0,-0.0
5.35,0.1,0.0,-0.0
5.361,0.1,0.0,-0.0
5.427,0.0,0.0,-0.0
5.432,-0.0,0.0,-0.0
5.435,-0.0,0.0,-0.0
5.437,0.0,0.0,-0.0
5.531,0.0,-0.0,0.0
5.532,0.0,0.0,0.0
5.536,0.0,-0.0,-0.0
5.537,0.0,-0.0,-0.0
5.63,0.0,-0.0,-0.0
5.632,0.0,-0.0,0.0
5.635,-0.0,0.0,0.0
5.636,-0.0,0.0,0.0
5.742,0.0,0.0,0.0
5.744,0.0,0.0,0.0
5.757,0.0,0.0,0.0
5.766,0.0,0.0,0.0
5.827,0.0,0.0,0.0
5.829,0.0,0.0,-0.0
5.832,0.0,0.0,0.0
5.929,0.0,0.0,0.0
5.93,0.0,0.0,0.0
5.932,0.0,0.0,0.0
5.937,0.0,0.0,-0.0
6.031,0.0,0.0,-0.0
6.032,0.0,0.0,0.0
6.034,0.0,0.0,0.0
6.036,0.0,0.0,0.0
6.169,0.0,0.0,-0.0
6.17,0.0,0.0,-0.0
6.172,0.0,0.0,-0.0
6.185,0.0,0.0,0.0
6.257,0.0,0.0,0.0
6.259,0.0,0.0,0.0
6.267,-0.0,0.0,0.0
6.27,0.0,0.0,-0.0
6.271,0.0,-0.0,-0.0
6.329,0.0,-0.0,-0.0
6.331,0.0,-0.0,-0.0
6.335,0.0,-0.0,-0.0
6.431,0.0,0.0,-0.0
6.432,0.0,0.0,-0.0
6.438,0.0,0.0,0.0
6.441,0.0,0.0,0.0
6.559,0.0,0.0,-0.0
6.561,0.0,0.0,-0.0
6.572,0.0,0.0,-0.0
6.575,0.0,0.0,-0.0
6.629,0.0,0.0,0.0
6.631,0.0,0.0,0.0
6.632,0.0,0.0,-0.0
6.635,0.0,-0.0,-0.0
6.726,0.0,-0.0,-0.0
6.732,0.0,-0.0,-0.0
6.734,-0.0,-0.0,-0.0
6.737,0.0,-0.0,-0.0
6.831,-0.0,-0.0,-0.0
6.833,-0.0,-0.0,-0.0
6.835,0.0,-0.0,-0.0
6.841,0.0,-0.0,-0.0
6.938,0.0,-0.0,-0.0
6.948,0.0,-0.0,-0.0
6.957,0.0,-0.0,0.0
6.96,-0.0,0.0,0.0
7.029,-0.0,0.0,0.0
7.034,-0.0,-0.0,-0.0
7.036,0.0,-0.0,-0.0
7.04,0.0,-0.0,-0.0
7.126,0.0,-0.0,-0.0
7.128,0.0,-0.0,-0.0
7.129,-0.0,-0.0,-0.0
7.137,-0.0,-0.0,-0.0
7.242,-0.0,0.0,0.0
7.245,0.0,0.0,0.0
7.247,0.0,0.0,0.0
7.25,-0.0,0.0,0.0
7.334,-0.0,0.0,0.0
7.336,-0.0,0.0,0.0
7.337,-0.0,0.0,0.0
7.34,-0.0,-0.0,0.0
7.429,0.0,-0.0,0.0
7.43,0.0,-0.0,0.0
7.432,0.0,-0.0,0.0
7.545,0.0,-0.0,0.0
7.546,0.0,-0.0,0.0
7.548,0.0,0.0,0.0
7.549,0.0,-0.0,0.0
7.641,0.0,0.0,0.0
7.643,0.0,0.0,-0.0
7.646,0.0,0.0,-0.0
7.648,0.0,-0.0,-0.0
7.726,0.0,-0.0,-0.0
7.727,0.0,0.0,0.0
7.728,0.0,0.0,0.0
7.73,-0.0,0.0,0.0
7.826,-0.0,-0.0,-0.0
7.827,-0.0,-0.0,-0.0
7.835,-0.0,-0.0,-0.0
7.836,0.0,-0.0,-0.0
7.931,0.0,-0.0,-0.0
7.933,-0.0,-0.0,-0.0
7.934,-0.0,0.0,0.0
7.936,-0.0,0.0,0.0
8.037,-0.0,0.0,0.0
8.039,-0.0,0.0,0.0
8.041,0.0,0.0,0.0
8.043,0.0,0.0,0.0
8.13,0.0,-0.0,-0.0
8.132,-0.0,-0.0,-0.0
8.136,-0.0,-0.0,-0.0
8.138,-0.0,-0.0,-0.0
8.232,-0.0,-0.0,-0.0
8.234,-0.0,-0.0,-0.0
8.235,-0.0,-0.0,-0.0
8.237,-0.0,-0.0,-0.0
8.325,-0.0,-0.0,-0.0
8.326,-0.0,-0.0,-0.0
8.328,-0.0,-0.0,-0.0
8.33,-0.0,-0.0,-0.0
8.443,0.0,-0.0,-0.0
8.451,0.0,-0.0,-0.0
8.452,0.0,-0.0,-0.0
8.464,0.0,-0.0,0.0
8.547,-0.0,0.0,0.0
8.548,-0.0,0.0,0.0
8.55,-0.0,0.0,0.0
8.551,-0.0,0.0,0.0
8.631,0.0,-0.0,-0.0
8.633,0.0,-0.0,-0.0
8.634,-0.0,-0.0,-0.0
8.636,-0.0,-0.0,-0.0
8.73,-0.0,-0.0,-0.0
8.731,-0.0,-0.0,-0.0
8.733,-0.0,-0.0,-0.1
8.734,-0.1,-0.1,-0.1
8.845,-0.1,-0.1,-0.1
8.847,-0.1,-0.1,-0.1
8.859,-0.1,-0.1,-0.1
8.867,-0.1,-0.1,-0.1
8.93,-0.1,-0.1,-0.1
8.931,-0.0,-0.1,-0.1
8.933,-0.0,-0.2,-0.1
8.934,-0.0,-0.2,-0.2
9.031,-0.1,-0.2,-0.2
9.033,-0.1,-0.2,-0.1
9.035,-0.1,-0.2,-0.1
9.036,-0.1,-0.1,-0.1
9.128,-0.0,-0.1,-0.0
9.13,0.0,-0.1,-0.0
9.131,0.0,-0.1,-0.0
9.133,-0.0,-0.1,-0.1
9.245,0.1,-0.1,-0.1
9.256,0.1,-0.1,-0.1
9.257,0.2,-0.2,-0.2
9.259,0.1,-0.2,-0.2
9.333,0.0,-0.1,-0.3
9.335,0.0,-0.1,-0.4
9.337,0.0,-0.1,-0.4
9.338,-0.1,-0.1,-0.4
9.427,-0.2,-0.0,-0.3
9.428,-0.3,-0.1,-0.2
9.435,-0.4,-0.0,-0.1
9.437,-0.3,-0.0,-0.1
9.532,-0.2,-0.2,0.1
9.534,-0.4,-0.1,0.1
9.536,-0.6,-0.1,0.1
9.541,-0.7,-0.0,0.1
9.648,-0.9,0.1,0.3
9.65,-1.1,0.2,0.3
9.651,-0.9,0.2,0.4
9.653,-0.9,0.3,0.5
9.732,-0.9,0.6,0.6
9.734,-1.0,0.7,0.7
9.735,-0.9,1.0,0.7
9.737,-0.8,1.0,0.7
9.829,-0.6,1.2,0.6
9.831,-0.5,1.3,0.6
9.838,-0.4,1.4,0.5
9.84,0.2,1.7,0.4
9.947,1.6,1.3,0.3
9.948,1.2,0.3,0.2
9.95,0.8,-0.1,0.1
9.952,0.2,0.1,0.2
10.027,-0.9,0.4,0.3
10.032,-1.4,0.2,0.4
10.033,-1.7,0.4,0.3
10.035,-1.9,0.4,0.4
10.102,-1.6,0.3,0.6
10.107,-1.3,0.4,0.8
10.109,-1.0,0.4,0.9
10.111,-0.7,0.4,1.0
10.228,-0.3,0.4,1.0
10.23,-0.2,0.5,0.9
10.233,-0.1,0.5,0.9
10.347,-0.2,0.4,0.8
10.351,-0.6,0.3,0.6
10.352,-0.7,0.3,0.6
10.354,-0.7,0.2,0.6
10.366,-0.7,0.1,0.5
10.427,-0.5,-0.1,0.5
10.429,-0.4,-0.2,0.4
10.431,-0.4,-0.2,0.4
10.436,-0.3,-0.2,0.4
10.535,-0.3,-0.2,0.4
10.537,-0.4,-0.2,0.4
10.538,-0.4,-0.2,0.4
10.54,-0.4,-0.1,0.4
10.627,-0.4,-0.1,0.4
10.633,-0.4,-0.2,0.4
10.635,-0.4,-0.2,0.4
10.636,-0.4,-0.3,0.3
10.737,-0.4,-0.4,0.1
10.746,-0.4,-0.4,0.0
10.757,-0.5,-0.4,-0.1
10.759,-0.5,-0.4,-0.3
10.825,-0.5,-0.4,-0.4
10.827,-0.6,-0.4,-0.4
10.829,-0.6,-0.3,-0.4
10.925,-0.6,-0.3,-0.4
10.928,-0.5,-0.1,-0.4
10.93,-0.6,-0.0,-0.3
10.932,-0.6,0.0,-0.2
11.025,-0.6,0.2,-0.2
11.032,-0.8,0.4,-0.1
11.033,-1.2,0.5,0.0
11.035,-1.2,0.4,0.1
11.146,-0.8,0.2,0.2
11.149,0.1,0.1,0.4
11.16,0.5,0.0,0.4
11.166,0.7,-0.0,0.4
11.228,0.7,-0.0,0.4
11.231,0.4,0.0,0.3
11.233,0.1,0.0,0.2
11.234,-0.1,0.1,0.2
11.329,-0.2,0.1,0.1
11.332,-0.2,0.1,0.0
11.334,-0.1,0.1,0.0
11.335,0.0,0.0,0.0
11.426,0.0,0.0,-0.0
11.429,-0.1,0.0,-0.1
11.43,-0.1,0.0,-0.1
11.432,-0.1,-0.0,-0.1
11.543,-0.0,-0.0,-0.1
11.556,0.1,0.0,-0.1
11.558,0.1,0.1,-0.1
11.559,0.1,0.1,-0.1
11.633,0.1,0.1,-0.0
11.636,0.2,0.1,0.0
11.638,0.1,0.1,0.0
11.639,-0.1,0.1,0.0
11.728,-0.2,0.0,-0.0
11.731,-0.1,-0.0,-0.1
11.734,0.2,-0.0,-0.2
11.736,0.4,-0.1,-0.2
11.825,0.6,-0.2,-0.2
11.828,0.9,-0.2,-0.4
11.83,0.8,-0.3,-0.5
11.831,0.6,-0.3,-0.6
11.938,0.8,-0.4,-0.7
11.951,1.5,-0.6,-1.0
11.952,1.8,-0.7,-1.2
11.954,2.1,-0.8,-1.3
12.031,2.4,-0.9,-1.4
12.035,2.7,-1.0,-1.6
12.036,2.8,-1.1,-1.6
12.038,2.9,-1.1,-1.6
12.132,3.1,-1.1,-1.6
12.135,3.6,-1.1,-1.5
12.137,3.7,-1.1,-1.5
12.139,3.5,-1.1,-1.4
12.241,3.4,-1.2,-1.4
12.246,3.2,-1.5,-1.4
12.248,3.1,-1.5,-1.4
12.25,3.1,-1.7,-1.4
12.332,2.9,-1.8,-1.4
12.336,2.6,-1.7,-1.1
12.337,2.5,-1.8,-1.0
12.342,2.4,-1.8,-1.0
12.422,2.3,-1.8,-1.0
12.425,2.0,-1.5,-0.7
12.431,2.1,-1.4,-0.5
12.529,2.4,-1.3,-0.3
12.531,2.4,-1.4,-0.3
12.534,2.2,-1.5,-0.3
12.536,1.7,-1.5,-0.4
12.722,1.5,-1.3,-0.3
12.724,1.3,-1.2,-0.3
12.727,0.9,-1.0,-0.3
12.728,1.0,-1.0,-0.4
12.799,0.3,-0.4,-0.3
12.804,0.2,-0.3,-0.3
12.808,0.1,-0.3,-0.3
12.809,0.1,-0.3,-0.2
12.857,0.3,-0.4,-0.3
12.859,0.2,-0.3,-0.3
12.862,0.1,-0.3,-0.3
12.863,0.1,-0.3,-0.2
12.923,0.1,-0.2,-0.2
12.924,0.2,-0.1,-0.1
12.931,0.2,-0.2,-0.0
13.044,0.1,-0.2,0.0
13.046,0.0,-0.1,0.0
13.048,0.0,-0.1,0.1
13.051,0.1,-0.1,0.1
13.062,0.1,-0.1,0.1
13.125,0.0,-0.0,0.1
13.126,-0.1,0.0,0.0
13.129,-0.0,0.1,0.1
13.131,0.1,0.1,0.1
13.224,0.1,0.1,0.1
13.226,0.1,0.0,0.1
13.233,-0.0,0.0,0.0
13.235,-0.1,0.0,0.0
13.323,-0.1,0.0,0.0
13.325,-0.0,0.0,0.0
13.328,0.0,0.0,0.0
13.33,0.0,0.1,0.0
13.444,0.1,0.0,0.0
13.446,0.1,0.1,-0.0
13.474,0.1,0.0,-0.0
13.48,0.1,0.1,0.0
13.543,0.1,0.1,0.0
13.545,0.1,0.0,0.0
13.548,0.1,-0.0,-0.0
13.553,0.1,-0.0,-0.0
