gyro_time_list,gyro_x_list,gyro_y_list,gyro_z_list
0.0,-0.5,0.0,0.0
0.002,-0.8,-0.0,0.2
0.003,-2.0,0.2,0.2
0.005,-3.8,0.8,0.1
0.126,-0.1,-1.1,-0.2
0.128,0.5,-0.5,0.0
0.13,0.3,0.1,-0.1
0.131,0.1,-0.0,-0.0
0.225,-0.0,0.2,-0.0
0.227,-0.2,0.2,0.0
0.229,-0.2,0.2,0.0
0.23,0.0,0.2,0.1
0.237,0.1,0.2,0.0
0.332,-0.0,0.1,0.0
0.333,-0.1,0.1,-0.0
0.342,-0.1,0.1,-0.0
0.358,-0.0,0.1,-0.0
0.425,0.0,0.0,-0.0
0.426,0.0,0.0,0.0
0.428,0.1,0.0,0.0
0.434,0.1,0.0,0.0
0.53,-0.0,0.0,0.1
0.531,-0.1,0.0,0.1
0.533,-0.2,0.1,0.1
0.625,-0.3,0.2,0.3
0.627,-0.5,0.2,0.4
0.635,-0.6,0.0,0.4
0.636,-0.6,-0.0,0.4
0.738,-0.4,0.3,0.5
0.739,-0.4,0.4,0.4
0.741,-0.3,0.4,0.3
0.755,-0.1,0.4,0.3
0.825,0.3,0.3,0.2
0.827,0.4,0.2,0.2
0.828,0.4,0.1,0.3
0.83,0.3,0.0,0.2
0.953,0.4,-0.1,0.2
0.954,0.3,-0.1,0.2
0.956,0.2,-0.1,0.2
0.958,0.2,-0.1,0.1
1.021,0.1,-0.1,0.1
1.022,0.1,-0.1,0.1
1.024,-0.0,-0.1,0.1
1.026,-0.1,-0.0,0.0
1.141,-0.1,0.0,0.0
1.143,-0.1,0.1,0.0
1.153,-0.1,0.1,0.0
1.154,-0.1,0.1,0.0
1.226,-0.2,0.1,0.0
1.228,-0.1,0.1,0.0
1.23,-0.1,0.1,0.0
1.231,-0.1,0.1,0.1
1.325,-0.4,0.1,0.2
1.327,-0.7,0.2,0.4
1.332,-1.3,0.2,0.5
1.333,-2.1,0.4,0.7
1.419,-4.0,0.4,1.0
1.42,-4.9,0.4,1.2
1.422,-5.7,0.5,1.4
1.424,-6.4,0.7,1.6
1.536,-6.9,0.8,2.4
1.545,-6.7,0.8,2.9
1.547,-6.3,0.7,3.5
1.549,-6.0,0.5,3.9
1.623,-5.0,0.0,4.3
1.638,-6.5,-0.0,3.9
1.64,-7.0,-0.2,3.6
1.642,-5.4,-0.8,3.1
1.721,-3.7,-1.1,2.3
1.727,-3.1,-1.1,2.1
1.731,-2.3,-1.3,1.9
1.733,-1.5,-1.5,1.9
1.833,-0.7,-1.3,2.1
1.835,-1.0,-1.1,2.1
1.836,-1.2,-0.9,2.3
1.838,-1.0,-0.8,2.6
1.926,-0.2,-0.4,2.9
1.93,0.6,-0.4,2.6
1.933,1.7,-0.3,2.4
1.935,2.4,-0.3,2.1
2.021,1.6,-0.1,0.9
2.023,0.8,-0.1,0.3
2.028,-0.1,-0.1,-0.3
2.03,-1.2,0.1,-0.7
2.121,-2.5,0.1,-1.1
2.122,-2.5,0.1,-1.2
2.124,-2.2,0.1,-1.1
2.126,-1.7,0.2,-1.0
2.234,0.3,0.1,-0.6
2.235,1.8,0.2,-0.5
2.242,2.9,0.2,-0.3
2.244,2.9,0.2,-0.2
2.322,1.7,-0.0,-0.3
2.328,0.8,-0.0,-0.3
2.329,0.1,-0.0,-0.4
2.331,-0.5,-0.0,-0.4
2.425,-0.8,-0.0,-0.5
2.427,-0.7,-0.0,-0.4
2.429,-0.6,-0.0,-0.3
2.43,-0.4,-0.0,-0.3
2.526,0.0,0.0,-0.1
2.528,0.1,0.1,-0.1
2.529,0.2,0.1,0.0
2.531,0.3,0.1,0.1
2.647,0.2,0.1,0.1
2.649,0.1,0.1,0.2
2.65,0.0,0.1,0.2
2.66,-0.1,0.1,0.2
2.722,-0.1,0.1,0.2
2.724,-0.1,0.1,0.3
2.729,0.0,0.1,0.3
2.731,0.1,0.2,0.3
2.827,0.2,0.1,0.3
2.828,0.2,0.2,0.3
2.83,0.3,0.3,0.3
2.832,0.3,0.2,0.2
2.929,0.1,0.1,0.1
2.93,0.1,0.1,0.0
2.932,0.1,0.1,0.0
2.934,0.1,0.1,0.0
3.033,-0.0,0.1,0.0
3.035,-0.1,0.1,0.0
3.049,-0.1,0.1,0.0
3.05,-0.1,0.1,0.0
3.125,0.0,0.1,0.1
3.127,0.1,0.1,0.1
3.129,0.1,0.2,0.1
3.13,0.2,0.2,0.2
3.229,0.3,0.2,0.4
3.23,0.3,0.1,0.7
3.232,0.1,0.1,0.9
3.233,-0.3,0.3,1.1
3.322,-0.3,-0.0,1.3
3.324,0.0,-0.0,1.3
3.325,0.4,0.0,1.2
3.327,0.4,-0.0,1.0
3.463,0.1,-0.0,0.7
3.472,0.1,0.0,0.5
3.473,-0.1,-0.0,0.3
3.475,-0.2,-0.0,0.3
3.527,-0.6,0.0,0.2
3.529,-0.6,-0.0,0.1
3.53,-0.4,-0.1,0.2
3.532,-0.4,-0.1,0.2
3.619,-0.8,-0.3,0.1
3.621,-0.6,-0.2,0.1
3.623,-0.2,-0.0,0.2
3.624,0.2,0.1,0.2
3.728,0.5,0.1,0.2
3.73,0.2,-0.0,-0.0
3.731,-0.2,-0.1,-0.2
3.885,-0.5,0.0,-0.3
3.896,-0.6,-0.1,-0.8
3.898,-0.5,-0.1,-1.0
3.899,-0.3,0.1,-1.1
3.913,0.1,0.2,-1.0
3.962,1.0,0.3,-0.6
3.964,1.2,0.4,-0.4
3.965,1.1,0.2,-0.3
3.967,1.0,0.1,-0.3
4.021,0.6,-0.1,-0.2
4.023,0.2,-0.2,-0.2
4.024,-0.0,-0.3,-0.2
4.13,-0.2,-0.3,-0.2
4.139,-0.4,-0.4,-0.2
4.141,-0.5,-0.4,-0.2
4.142,-0.3,-0.4,-0.2
4.221,-0.2,-0.3,-0.2
4.241,-0.1,-0.1,-0.4
4.242,0.0,-0.0,-0.4
4.244,0.1,0.0,-0.5
4.324,0.1,0.0,-0.6
4.327,0.1,0.1,-0.6
4.332,-0.0,0.0,-0.7
4.333,-0.2,-0.0,-0.7
4.421,-0.3,-0.1,-0.6
4.424,-0.5,-0.2,-0.5
4.426,-0.5,-0.3,-0.5
4.43,-0.5,-0.3,-0.4
4.533,-0.5,-0.2,-0.3
4.537,-3.5,-1.1,-2.8
4.538,1.5,0.4,-0.0
4.54,2.2,0.1,-0.5
4.624,0.4,-0.2,-0.5
4.627,-0.6,-0.6,-1.0
4.635,-0.2,-0.4,-0.8
4.637,0.8,-0.2,-0.5
4.718,1.7,-0.2,-0.3
4.722,1.8,0.0,-0.1
4.723,1.8,0.1,-0.2
4.725,1.6,0.3,-0.1
4.82,1.2,0.4,-0.1
4.823,-0.3,0.1,-0.7
4.827,-0.5,-0.2,-0.9
4.83,-0.4,-0.8,-0.7
4.933,-0.5,-0.8,-0.6
4.942,0.1,-0.4,-0.6
4.944,0.0,-0.3,-0.4
4.955,-0.0,-0.3,-0.4
5.021,0.1,-0.3,-0.4
5.029,0.6,-0.5,-0.5
5.031,0.4,-0.4,-0.5
5.032,0.2,-0.4,-0.4
5.128,-0.1,-0.4,-0.3
5.131,-0.5,-0.3,-0.2
5.133,-0.7,-0.2,-0.2
5.135,-0.6,-0.2,-0.2
5.222,-0.5,-0.1,-0.2
5.226,-0.2,-0.1,-0.1
5.227,-0.2,-0.1,0.0
5.229,-0.2,-0.1,0.1
5.329,-0.3,-0.0,0.0
5.338,-0.4,0.1,0.0
5.347,-0.3,0.0,0.0
5.354,-0.1,-0.2,0.1
5.423,0.3,0.0,0.0
5.43,0.4,-0.2,0.0
5.433,-0.1,-0.4,0.3
5.435,-0.2,-0.2,0.2
5.525,-0.5,-0.3,0.4
5.529,-0.7,-0.3,0.4
5.531,-0.7,-0.0,0.1
5.656,-0.5,-0.0,0.2
5.658,-0.5,-0.1,0.4
5.661,0.1,0.1,0.0
5.662,0.3,0.1,0.0
5.736,0.3,0.1,0.0
5.738,0.2,0.1,0.1
5.749,-0.3,0.2,0.1
5.751,-0.7,0.0,0.1
5.752,-0.8,0.0,-0.1
5.754,-0.6,0.0,-0.2
5.818,-0.7,-0.1,-0.2
5.819,-0.8,0.0,-0.3
5.925,-0.8,0.1,-0.0
5.926,-0.6,0.2,-0.1
5.93,-3.0,-0.0,-0.0
5.932,-3.7,0.1,0.0
6.025,-3.2,0.1,0.1
6.027,-2.6,-0.0,0.0
6.03,-1.9,-0.0,0.0
6.032,-1.3,-0.0,0.0
6.138,-0.7,0.0,-0.1
6.141,-0.3,0.0,-0.1
6.155,0.2,0.1,-0.0
6.157,0.2,0.1,-0.0
6.224,0.1,0.0,-0.0
6.225,0.1,0.0,-0.0
6.228,-0.1,0.1,0.0
6.233,-0.2,0.0,0.0
6.317,-0.3,0.1,0.1
6.319,-0.3,0.1,0.0
6.326,-0.1,0.1,0.0
6.328,-0.0,0.1,0.0
6.42,-0.1,0.1,0.0
6.425,-0.2,0.0,0.0
6.43,0.1,0.0,0.0
6.432,0.2,-0.0,0.1
6.528,0.2,-0.0,0.1
6.543,0.2,0.0,0.1
6.554,-0.1,0.0,0.0
6.556,-0.2,0.0,0.0
6.623,-0.2,0.0,0.0
6.625,-0.1,-0.0,0.0
6.641,-0.1,-0.0,-0.0
6.643,-0.1,-0.0,-0.0
6.72,-0.2,-0.0,-0.0
6.721,-0.2,-0.0,-0.0
6.724,-0.1,-0.0,-0.0
6.73,-0.0,-0.0,-0.0
6.833,0.0,-0.0,-0.0
6.835,0.0,-0.0,-0.0
6.84,0.0,-0.0,-0.0
6.842,0.0,-0.0,-0.0
6.921,0.0,-0.0,-0.0
6.923,0.0,-0.0,0.0
6.926,0.0,0.0,0.0
6.931,-0.0,0.0,0.0
7.022,-0.1,0.0,0.0
7.024,-0.1,0.0,0.0
7.032,-0.2,0.0,0.0
7.034,-0.2,0.0,0.0
7.124,-0.1,0.0,0.0
7.125,-0.0,0.0,0.0
7.13,-0.0,0.0,0.0
7.231,-0.0,-0.0,-0.0
7.232,-0.0,-0.0,-0.0
7.234,0.0,-0.0,-0.0
7.244,0.0,-0.0,-0.0
7.323,0.0,0.0,-0.0
7.325,0.0,0.0,0.0
7.326,-0.0,0.0,0.0
7.333,-0.1,0.0,-0.0
7.424,-0.0,-0.0,-0.0
7.426,-0.0,-0.0,-0.0
7.428,-0.0,-0.0,-0.0
7.432,0.0,-0.0,0.0
7.525,0.0,-0.0,0.0
7.527,0.1,0.0,0.0
7.528,0.1,0.0,0.0
7.531,0.1,0.0,0.1
7.645,0.0,0.0,0.1
7.647,0.0,0.0,0.1
7.649,-0.0,0.0,0.0
7.667,-0.0,-0.0,-0.0
7.721,-0.0,-0.1,-0.0
7.722,-0.0,-0.1,-0.0
7.724,0.0,-0.1,-0.0
7.727,0.1,-0.0,-0.0
7.819,0.1,-0.0,0.0
7.821,0.1,0.0,0.0
7.823,0.2,0.0,0.0
7.827,0.1,0.0,0.0
7.93,0.1,-0.0,-0.0
7.931,0.1,-0.0,-0.0
7.933,0.0,0.0,-0.0
7.938,-0.2,0.0,0.0
8.034,-0.2,0.0,0.0
8.036,-0.3,0.0,0.0
8.042,-0.2,0.0,0.0
8.053,-0.2,0.0,-0.0
8.119,-0.1,0.0,-0.0
8.121,-0.1,0.0,-0.0
8.123,-0.0,0.0,-0.0
8.132,0.0,0.0,-0.0
8.224,0.1,0.0,-0.0
8.225,0.1,0.0,0.0
8.227,0.1,0.0,0.0
8.231,-0.0,0.1,0.0
8.323,-0.1,0.0,0.0
8.325,-0.1,0.0,0.0
8.326,-0.1,0.0,0.0
8.329,-0.1,-0.0,-0.0
8.437,-0.1,-0.0,-0.0
8.438,-0.0,-0.0,-0.0
8.448,0.0,-0.0,-0.0
8.455,0.1,-0.0,-0.0
8.527,0.1,-0.0,0.0
8.528,0.1,-0.0,0.0
8.53,0.1,-0.0,0.0
8.533,0.0,0.0,0.0
8.625,0.0,0.0,0.0
8.636,-0.0,-0.0,0.0
8.638,-0.0,-0.0,-0.0
8.641,-0.1,-0.0,-0.0
8.72,-0.1,-0.0,-0.0
8.729,-0.0,-0.0,-0.0
8.732,-0.0,-0.0,0.0
8.735,0.0,0.0,0.0
8.834,0.0,0.0,0.0
8.845,-0.0,0.0,0.0
8.847,-0.0,0.0,0.0
8.925,-0.0,0.0,0.0
8.926,-0.0,0.0,0.0
8.928,-0.0,0.0,-0.0
8.93,-0.0,0.0,-0.0
9.019,-0.0,-0.0,-0.0
9.021,0.0,0.0,-0.0
9.022,0.0,-0.0,0.0
9.024,0.0,0.0,0.0
9.127,-0.0,-0.0,-0.0
9.134,-0.0,-0.0,-0.0
9.136,-0.0,-0.0,-0.0
9.137,-0.0,-0.0,-0.0
9.224,0.0,0.0,-0.0
9.234,0.0,0.0,0.0
9.236,-0.0,-0.0,-0.0
9.237,-0.0,-0.0,-0.0
9.319,0.0,-0.0,-0.0
9.321,0.0,-0.0,-0.0
9.322,0.0,-0.0,0.0
9.328,0.0,-0.0,0.0
9.422,-0.0,-0.0,-0.0
9.429,-0.0,-0.0,-0.0
9.431,-0.0,-0.0,-0.0
9.433,-0.0,-0.0,0.0
9.532,0.0,0.0,0.0
9.533,0.0,-0.0,0.0
9.534,-0.0,0.0,0.0
9.536,-0.0,0.0,0.0
9.616,-0.0,0.0,0.0
9.621,-0.0,0.0,0.0
9.622,-0.0,0.0,0.0
9.624,-0.0,0.0,0.0
9.724,-0.0,0.0,0.0
9.725,-0.0,0.0,0.0
9.731,0.0,-0.0,-0.0
9.733,0.0,0.0,0.0
9.823,0.0,-0.0,0.0
9.824,0.0,-0.0,0.0
9.826,0.0,-0.0,-0.0
9.828,0.0,-0.0,-0.0
9.965,-0.0,-0.0,-0.0
9.966,-0.0,-0.0,-0.0
9.973,0.0,-0.0,-0.0
9.974,0.0,0.0,0.0
10.05,0.0,-0.0,0.0
10.052,0.0,0.0,0.0
10.054,0.0,-0.0,-0.0
10.055,0.0,-0.0,-0.0
10.122,0.0,-0.0,-0.0
10.124,0.0,0.0,0.0
10.125,0.0,-0.0,0.0
10.127,0.0,-0.0,0.0
10.221,0.0,-0.0,0.0
10.222,0.0,-0.0,0.0
10.224,-0.0,-0.0,0.0
10.225,0.0,-0.0,0.0
10.331,0.0,0.0,0.0
10.333,0.0,0.0,0.0
10.336,0.0,-0.0,0.0
10.348,0.0,-0.0,0.0
10.429,0.0,-0.0,0.0
10.431,0.1,-0.0,0.0
10.433,0.1,-0.0,0.0
10.434,0.1,-0.0,0.0
10.527,0.0,-0.0,0.0
10.529,-0.0,-0.0,-0.0
10.531,-0.0,-0.0,-0.0
10.532,0.0,-0.0,-0.0
10.625,0.0,0.0,0.0
10.627,0.0,0.0,0.0
10.635,0.0,-0.0,0.0
10.637,-0.0,-0.0,0.0
10.74,-0.0,0.0,0.0
10.741,-0.0,0.0,0.0
10.751,-0.0,0.0,0.0
10.753,0.0,0.0,0.0
10.825,0.0,0.0,0.0
10.827,0.0,0.0,0.0
10.828,-0.0,-0.0,-0.0
10.83,0.0,-0.0,0.0
10.959,0.0,-0.0,0.0
10.961,0.0,0.0,0.0
10.962,0.1,0.0,0.0
10.965,0.3,0.0,-0.0
11.023,0.3,-0.0,-0.0
11.025,0.2,-0.0,-0.0
11.026,0.1,-0.0,-0.0
11.027,0.0,-0.0,-0.0
11.139,-0.2,-0.0,-0.0
11.149,-0.1,0.0,-0.0
11.15,-0.1,0.0,-0.0
11.152,-0.1,0.0,0.0
11.228,0.0,0.0,0.0
11.233,0.0,0.0,0.0
11.234,0.0,0.0,0.0
11.236,-0.0,0.0,0.0
11.318,-0.2,-0.0,-0.0
11.319,-0.2,-0.0,-0.0
11.326,-0.2,-0.0,-0.0
11.328,-0.2,0.0,-0.0
11.42,-0.1,0.0,-0.0
11.423,0.0,0.0,0.0
11.427,0.0,0.0,0.0
11.429,0.0,0.0,0.0
11.55,-0.0,0.0,0.0
11.551,-0.1,-0.0,0.0
11.553,-0.1,-0.0,-0.0
11.554,-0.1,-0.0,-0.0
11.626,0.0,-0.0,-0.0
11.627,0.0,-0.0,-0.0
11.629,0.1,-0.0,-0.0
11.631,0.1,-0.0,0.0
11.72,0.1,-0.0,0.0
11.722,0.0,-0.0,0.0
11.723,0.0,-0.0,0.0
11.725,0.0,-0.0,0.0
11.833,-0.0,0.0,0.0
11.843,-0.0,0.0,0.0
11.844,-0.0,0.0,0.0
11.846,-0.0,0.0,0.0
11.944,0.0,0.0,0.0
11.946,0.0,0.0,0.0
11.948,-0.0,0.0,0.0
11.949,-0.0,0.0,0.0
12.024,-0.0,0.0,0.0
12.026,-0.0,0.0,0.0
12.031,-0.1,-0.0,-0.0
12.032,-0.1,-0.0,0.0
12.129,-0.0,-0.0,0.0
12.13,0.1,0.0,0.0
12.132,0.0,0.0,0.0
12.234,0.0,0.0,0.0
12.237,0.0,0.0,-0.0
12.244,-0.0,-0.0,-0.0
12.245,-0.0,-0.0,-0.0
12.331,-0.0,-0.0,-0.0
12.335,-0.0,0.0,-0.0
12.337,0.0,0.0,0.0
12.34,0.3,0.1,0.0
12.425,0.8,0.1,-0.1
12.428,1.3,0.0,-0.2
12.43,1.3,0.2,-0.3
12.431,1.3,0.2,-0.3
12.518,1.3,0.1,-0.3
12.526,0.9,0.2,-0.3
12.527,0.8,0.2,-0.2
12.529,0.7,0.2,-0.2
12.629,0.4,0.1,-0.2
12.632,-0.0,-0.0,-0.2
12.641,-0.2,0.0,-0.2
12.652,-0.4,0.1,-0.2
12.729,-0.4,0.1,-0.1
12.732,0.0,0.1,-0.1
12.733,0.1,0.2,-0.0
12.735,-0.3,0.1,0.0
12.824,-0.4,0.0,-0.1
12.827,0.1,0.0,0.0
12.828,0.4,-0.0,0.1
12.83,0.7,-0.0,0.1
12.922,0.8,0.0,0.1
12.925,0.8,0.0,0.2
12.927,0.9,0.1,0.2
12.932,1.0,0.1,0.2
13.035,0.9,0.0,0.3
13.039,0.6,0.1,0.2
13.052,0.2,0.0,0.2
13.054,-0.3,-0.0,0.3
13.119,-0.5,-0.1,0.3
13.125,-0.6,-0.1,0.3
13.127,-0.5,-0.1,0.2
13.128,-0.3,-0.1,0.3
13.222,0.2,0.0,0.3
13.225,0.7,0.1,0.4
13.227,0.8,0.2,0.4
13.228,1.2,0.3,0.6
13.323,1.4,0.4,0.8
13.326,1.5,0.5,0.9
13.328,1.3,0.6,0.8
13.329,1.2,0.7,0.8
13.437,1.2,0.8,0.7
13.451,1.3,0.7,0.7
13.453,1.1,0.7,0.7
13.454,0.9,0.7,0.7
13.528,0.6,0.6,0.7
13.532,0.1,0.3,0.5
13.533,-0.2,0.3,0.4
13.535,-0.3,0.3,0.3
13.624,-0.3,0.3,0.3
13.63,-0.3,0.2,0.4
13.632,-0.2,0.2,0.5
13.634,-0.1,0.2,0.7
13.718,0.0,0.1,0.8
13.721,0.3,0.1,1.0
13.723,0.3,0.1,1.1
13.729,0.2,0.1,1.1
13.83,0.1,0.0,1.1
13.843,0.0,-0.1,1.1
13.845,-0.0,-0.2,1.0
13.928,0.0,-0.3,0.8
13.93,0.2,-0.3,0.6
13.933,0.7,-0.4,0.2
13.935,0.8,-0.4,-0.1
14.018,0.7,-0.4,-0.4
14.024,0.5,-0.4,-0.7
14.03,-0.3,-0.4,-1.2
14.031,-0.6,-0.2,-1.5
14.134,-0.6,-0.2,-1.8
14.136,-0.4,-0.2,-1.9
14.14,0.2,-0.1,-2.0
14.141,0.6,-0.1,-2.0
14.227,0.9,-0.1,-2.0
14.24,1.1,-0.0,-1.9
14.244,1.2,0.1,-1.9
14.246,1.1,0.1,-2.0
14.328,1.1,0.2,-2.0
14.331,2.6,0.1,-1.9
14.34,5.7,-0.4,-2.1
14.342,4.5,-0.8,-2.2
14.418,4.1,-1.0,-2.3
14.419,4.8,-0.9,-2.4
14.423,4.9,-1.1,-2.6
14.424,4.9,-1.3,-2.7
14.533,5.2,-1.3,-2.7
14.534,5.1,-1.3,-2.6
14.54,4.4,-1.3,-2.6
14.541,4.2,-1.3,-2.6
14.615,4.1,-1.3,-2.5
14.617,4.1,-1.3,-2.4
14.624,3.7,-1.3,-2.2
14.626,3.4,-1.3,-2.1
14.726,3.0,-1.2,-1.9
14.733,2.7,-1.3,-1.7
14.736,2.2,-1.3,-1.4
14.738,2.1,-1.2,-1.2
14.818,2.0,-1.2,-1.1
14.819,1.9,-1.2,-0.8
14.827,1.4,-1.2,-0.7
14.828,1.3,-1.0,-0.7
14.931,1.2,-0.8,-0.6
14.933,1.0,-0.7,-0.5
14.944,0.8,-0.4,-0.4
14.955,0.8,-0.2,-0.3
15.03,0.5,-0.1,-0.2
15.031,0.1,-0.2,-0.1
15.128,0.1,-0.0,0.0
15.129,-0.1,0.0,0.0
15.131,-0.2,-0.2,-0.1
15.133,-0.3,-0.1,-0.0
15.136,-0.3,0.2,0.1
15.137,-0.3,0.2,-0.0
15.217,-0.1,0.2,0.1
15.219,0.0,0.4,0.1
15.222,-0.0,0.7,0.3
15.224,-0.1,0.5,0.1
15.336,-0.2,0.3,-0.1
15.337,-0.1,0.3,0.0
15.352,-0.1,0.3,0.0
15.363,-0.1,0.3,0.1
15.424,0.0,0.5,0.3
15.426,0.0,0.5,0.1
15.429,-0.1,0.4,0.0
15.522,-0.3,0.2,-0.1
15.524,-0.1,0.1,-0.1
15.525,-0.1,0.1,-0.1
15.528,0.0,0.2,0.3
15.593,0.0,0.1,0.3
15.599,0.1,-0.1,0.2
15.601,-0.1,-0.4,0.1
15.604,-0.5,-0.2,0.2
15.734,-0.6,-0.2,0.2
15.735,-0.6,-0.3,0.3
15.737,-0.7,-0.1,-0.6
15.826,-0.4,-0.0,0.4
15.827,0.1,-0.0,0.9
15.829,0.1,0.2,0.9
15.834,-0.2,0.3,0.9
15.838,-0.4,0.1,0.1
15.921,-0.6,0.3,0.0
15.922,-0.6,0.1,0.0
15.926,-0.5,0.2,0.1
15.931,0.9,-0.1,-0.1
