accel_time_list,accel_x_list,accel_y_list,accel_z_list
0.0,-5.9,10.4,9.1
0.002,1.2,1.6,6.8
0.003,-2.6,5.2,8.0
0.005,-0.7,5.2,8.6
0.097,-1.2,4.5,8.5
0.099,-1.3,4.8,8.8
0.101,-1.4,4.3,8.6
0.102,-1.3,4.5,8.8
0.106,-1.4,4.2,9.0
0.196,-1.4,4.2,8.9
0.198,-1.6,4.5,9.0
0.2,-1.6,4.6,8.9
0.203,-1.4,4.5,8.6
0.299,-1.4,4.7,8.6
0.3,-1.5,4.6,8.5
0.302,-1.6,4.7,8.3
0.344,-1.9,4.5,7.9
0.4,-1.9,4.3,7.6
0.402,-1.9,4.4,7.4
0.403,-1.6,4.1,7.3
0.407,-1.6,3.8,7.5
0.469,-1.6,3.8,7.6
0.471,-1.9,3.6,7.9
0.472,-1.9,3.6,8.1
0.598,-1.9,3.5,8.0
0.6,-1.8,3.3,7.9
0.601,-1.8,3.2,7.7
0.603,-1.8,2.9,7.5
0.699,-1.6,2.5,5.9
0.7,-1.5,1.6,4.8
0.702,-1.4,0.5,4.4
0.716,-1.4,0.6,4.9
0.798,-2.7,0.1,5.9
0.8,-3.8,-0.3,6.1
0.801,-4.0,-0.5,5.9
0.806,-4.7,-2.6,4.8
0.914,-6.3,-4.2,5.4
0.925,-6.5,-4.0,5.1
0.927,-7.6,-4.9,4.1
0.929,-9.5,-5.9,2.7
0.996,-12.6,-7.2,-0.4
0.997,-14.8,-8.8,-0.8
0.999,-16.0,-9.8,-1.1
1.001,-16.1,-11.3,-1.7
1.071,-13.2,-10.6,-0.2
1.073,-12.1,-7.8,1.2
1.082,-12.0,-6.5,2.1
1.092,-11.9,-6.1,2.3
1.171,-10.3,-6.6,1.5
1.173,-9.3,-6.8,0.9
1.175,-8.6,-6.8,0.5
1.176,-8.2,-6.8,0.4
1.273,-8.3,-5.4,1.3
1.274,-8.3,-5.5,1.3
1.276,-9.0,-4.7,1.6
1.277,-9.6,-3.8,1.7
1.372,-9.3,-2.1,1.5
1.379,-9.5,-1.3,2.1
1.38,-10.1,-3.8,1.0
1.382,-9.6,-4.6,-0.3
1.473,-10.6,-2.5,-0.3
1.483,-10.5,-2.0,0.1
1.484,-10.1,-1.6,0.3
1.491,-9.8,-1.7,0.0
1.573,-9.5,-2.3,-0.5
1.574,-9.4,-2.3,-0.4
1.576,-9.3,-2.0,0.0
1.579,-9.5,-2.2,0.1
1.672,-9.1,-2.5,0.0
1.677,-9.1,-2.7,0.1
1.679,-9.2,-3.1,0.1
1.68,-9.3,-3.5,0.1
1.799,-9.3,-4.1,0.4
1.801,-9.2,-3.7,0.7
1.803,-9.1,-3.4,1.1
1.804,-8.9,-3.3,1.4
1.907,-8.5,-3.7,1.1
1.909,-8.5,-4.0,0.9
1.91,-8.4,-4.3,1.0
1.912,-8.5,-4.3,1.1
1.995,-8.6,-4.3,1.2
1.997,-8.6,-4.4,1.1
1.999,-8.7,-4.3,1.2
2.0,-8.6,-4.2,1.2
2.097,-8.6,-4.1,1.4
2.099,-8.6,-4.2,1.2
2.101,-8.7,-4.2,1.1
2.102,-8.5,-4.2,1.1
2.196,-8.7,-4.2,0.8
2.197,-8.7,-4.2,0.8
2.203,-8.5,-4.3,0.8
2.204,-8.5,-4.2,0.7
2.322,-8.3,-4.2,0.6
2.324,-8.2,-3.9,0.7
2.326,-8.7,-3.8,0.5
2.328,-9.7,-3.7,0.5
2.397,-10.2,-3.8,0.6
2.399,-8.9,-3.7,0.6
2.4,-8.1,-3.3,0.6
2.402,-8.1,-4.0,0.6
2.497,-9.0,-4.5,0.6
2.499,-8.6,-4.3,0.6
2.5,-8.3,-4.1,0.7
2.502,-8.2,-3.8,0.7
2.597,-8.0,-4.2,1.0
2.599,-8.1,-4.4,1.0
2.6,-8.4,-4.3,1.0
2.613,-8.6,-4.4,1.1
2.697,-9.7,-3.2,3.0
2.699,-10.3,-4.5,2.6
2.7,-10.2,-5.4,1.5
2.702,-9.9,-5.6,1.1
2.797,-11.4,-5.2,1.3
2.799,-11.3,-4.6,1.6
2.8,-11.0,-4.2,1.7
2.802,-12.2,-4.5,1.8
2.897,-9.5,-4.5,1.6
2.899,-10.2,-4.3,1.5
2.907,-9.2,-4.7,1.4
2.909,-7.8,-5.3,0.7
2.998,-7.9,-3.6,0.7
3.003,-8.7,-3.4,1.0
3.015,-8.8,-4.7,0.3
3.016,-9.0,-4.8,0.1
3.097,-9.0,-5.1,-0.4
3.102,-8.9,-4.7,-0.4
3.103,-8.9,-4.3,-0.2
3.105,-8.5,-4.0,0.1
3.196,-7.7,-2.9,1.2
3.198,-7.0,-3.4,0.9
3.199,-6.8,-4.2,0.3
3.201,-6.8,-4.3,0.6
3.311,-7.5,-4.2,0.8
3.313,-7.8,-4.1,0.9
3.319,-7.7,-4.0,1.1
3.321,-7.6,-3.7,1.2
3.397,-8.2,-3.3,1.6
3.407,-8.6,-3.3,1.8
3.408,-9.2,-3.6,2.1
3.41,-9.7,-3.6,2.1
3.497,-14.2,-2.8,0.6
3.498,-14.4,-2.9,-0.1
3.5,-12.7,-4.6,0.1
3.502,-13.2,-6.3,0.3
3.597,-11.1,-2.9,0.6
3.598,-10.6,-1.6,0.5
3.6,-8.9,-0.9,1.4
3.602,-7.0,-0.9,2.1
3.697,-6.0,-3.3,0.4
3.704,-6.3,-4.7,-0.3
3.705,-6.3,-5.6,-0.5
3.707,-6.3,-5.8,-0.4
3.805,-6.9,-5.2,0.5
3.806,-7.3,-4.9,1.0
3.808,-7.6,-4.2,1.4
3.816,-8.1,-3.8,1.5
3.898,-11.6,-3.6,1.4
3.899,-12.5,-2.9,0.9
3.901,-11.9,-2.6,1.0
3.903,-11.0,-2.9,1.3
3.996,-10.7,-4.0,1.2
3.998,-11.3,-5.0,1.2
3.999,-11.7,-5.4,1.1
4.095,-10.5,-4.4,1.5
4.098,-9.2,-3.6,1.8
4.1,-9.5,-3.2,1.8
4.102,-9.1,-3.0,1.3
4.201,-8.4,-2.6,0.7
4.215,-9.5,-2.8,-0.0
4.217,-12.5,-3.5,-0.8
4.219,-16.6,-4.0,-1.8
4.297,-16.3,-3.8,-2.4
4.304,-11.9,-3.4,-2.2
4.305,-11.1,-2.6,-1.7
4.307,-10.6,-2.7,-1.1
4.395,-10.7,-3.4,-0.9
4.398,-9.2,-3.0,-1.0
4.4,-8.4,-2.7,-0.8
4.401,-9.0,-2.0,-0.4
4.5,-8.9,-1.1,-0.2
4.503,-6.6,-1.2,0.5
4.505,-5.9,-1.1,0.8
4.506,-5.5,-1.0,1.2
4.599,-5.2,-0.8,1.3
4.602,-3.6,-0.0,1.2
4.604,-4.0,-0.0,1.5
4.605,-5.2,0.3,1.6
4.695,-6.2,0.1,1.3
4.698,-9.3,-2.3,0.2
4.7,-11.7,-3.6,-0.5
4.701,-13.7,-4.7,-0.8
4.796,-15.1,-5.4,-0.9
4.799,-18.1,-6.9,0.7
4.801,-13.1,-6.8,1.5
4.803,-10.6,-6.7,1.6
4.896,-10.1,-6.1,2.0
4.9,-9.7,-5.1,1.4
4.902,-8.7,-5.4,2.3
4.912,-7.7,-4.6,3.0
4.995,-7.4,-3.6,2.9
4.998,-3.9,-5.1,3.1
5.0,-2.3,-5.6,3.1
5.001,-2.8,-6.0,2.6
5.097,-4.9,-6.3,2.0
5.1,-8.7,-8.6,0.3
5.102,-10.1,-8.2,0.0
5.104,-10.5,-8.0,0.2
5.195,-10.8,-7.3,1.1
5.203,-17.5,-6.4,1.2
5.205,-21.6,-5.9,0.3
5.207,-27.9,-7.5,0.8
5.298,-19.3,-4.5,2.0
5.302,-12.3,-3.6,1.4
5.312,-13.4,-5.8,3.4
5.313,-13.5,-4.9,4.4
5.395,-13.4,-2.8,4.1
5.401,-11.7,-4.0,5.9
5.403,-10.8,-4.1,7.8
5.405,-9.0,-3.9,11.1
5.494,-8.2,-6.3,11.8
5.498,-2.1,-5.4,10.2
5.499,-0.7,-6.6,9.2
5.501,-1.0,-5.2,4.7
5.573,2.3,-4.0,0.6
5.578,-5.8,-4.4,-5.5
5.58,-8.8,-5.8,-6.9
5.668,-7.0,-0.9,-4.2
5.67,-10.6,2.9,-4.0
5.69,-10.3,4.1,-3.5
5.769,-4.2,12.4,-3.7
5.771,-4.4,13.6,5.3
5.773,-9.4,6.3,16.5
5.776,-9.5,-1.8,37.5
5.897,-9.2,-17.7,39.2
5.898,-8.6,-20.2,39.2
5.9,-6.7,-33.9,31.8
5.907,-15.0,-32.3,9.9
5.996,-22.8,-25.3,-4.6
5.997,-19.2,-20.3,-12.8
5.999,-20.7,-9.4,-6.0
6.002,-16.2,38.9,-22.4
6.004,1.9,38.7,-14.2
6.094,-3.4,31.4,-10.7
6.096,3.5,17.0,-15.2
6.108,2.0,6.2,-18.2
6.12,-2.2,5.8,-10.8
6.198,-4.2,-4.6,-11.8
6.2,-2.6,-8.6,-4.1
6.203,-3.7,-16.1,0.5
6.205,-3.0,-21.3,4.6
6.294,-2.2,-17.2,6.6
6.296,-4.4,-15.2,20.9
6.299,-4.6,1.6,16.9
6.301,-3.5,12.8,14.9
6.394,0.9,24.7,3.0
6.396,-3.9,26.1,-8.6
6.399,-2.9,23.0,-15.2
6.401,-3.7,23.3,-19.8
6.497,-2.0,11.3,-22.3
6.52,1.5,9.5,-23.4
6.524,-2.9,6.1,-10.2
6.525,-5.8,1.0,-4.4
6.594,-8.0,-3.1,-3.7
6.599,3.2,8.9,-0.8
6.603,2.0,-20.0,-4.7
6.604,-7.0,-28.4,10.2
6.732,-8.3,-37.1,13.1
6.734,-12.0,-32.0,27.2
6.738,-38.7,-9.9,25.3
6.74,-38.7,6.7,38.0
6.801,-38.7,-39.2,39.2
6.803,-5.4,-32.8,27.5
6.807,11.5,12.7,5.0
6.809,21.4,2.7,-14.8
6.896,3.7,-9.3,37.3
6.905,16.9,-39.2,17.3
6.908,-31.0,-39.2,-2.4
6.912,-13.2,-19.7,-8.6
6.994,-17.4,7.0,-10.0
6.996,-19.3,13.0,-3.3
7.0,-11.3,4.9,7.0
7.001,-8.7,-0.5,3.0
7.08,-7.6,-8.9,-4.9
7.082,-1.2,-6.4,-7.1
7.086,2.8,3.3,-7.0
7.088,6.9,6.3,-6.9
7.17,7.7,0.6,-8.2
7.171,2.0,-9.1,-6.6
7.3,0.0,-3.6,-6.5
7.314,-0.2,-3.4,-9.5
7.315,-2.0,-5.6,-8.2
7.328,-3.4,-5.8,-9.1
7.411,-3.2,-9.8,-15.8
7.413,-1.7,-35.9,-24.1
7.415,1.0,-34.2,-29.4
7.418,-0.5,-29.0,-22.4
7.494,-1.7,-6.5,-8.7
7.499,1.1,-6.1,-5.9
7.501,0.2,-2.4,-5.1
7.502,-0.3,-2.5,-2.1
7.573,0.9,-5.3,-1.9
7.574,2.7,-4.2,-2.3
7.576,2.9,-3.8,-1.7
7.578,3.2,-3.8,-0.9
7.59,4.5,-4.7,-0.6
7.68,2.8,-5.8,-0.8
7.682,2.0,-7.2,-1.1
7.684,1.9,-8.1,-0.5
7.768,1.0,-9.0,0.9
7.776,1.5,-9.6,0.5
7.777,0.9,-14.9,2.3
7.779,-0.1,-26.4,1.1
7.869,0.1,-2.0,8.6
7.871,2.1,-1.4,5.4
7.874,3.1,-8.5,0.7
7.876,2.1,-11.0,-1.0
7.995,0.7,-8.7,1.0
8.002,1.5,-9.4,1.4
8.004,1.7,-10.2,1.9
8.006,1.1,-11.5,1.4
8.095,1.3,-11.1,0.6
8.097,1.1,-7.5,0.6
8.103,1.5,-7.6,-0.4
8.105,1.6,-8.4,-1.2
8.108,1.2,-9.0,-0.6
8.194,1.1,-9.9,-0.7
8.195,1.1,-10.2,-0.7
8.197,0.7,-10.6,-0.7
8.2,0.9,-10.6,-1.5
8.294,1.3,-9.8,-1.8
8.295,1.3,-9.3,-2.1
8.297,1.2,-9.1,-2.1
8.3,1.0,-9.6,-2.0
8.394,1.0,-10.1,-1.7
8.396,1.2,-10.1,-1.4
8.406,1.3,-10.0,-1.1
8.409,1.3,-9.5,-0.6
8.469,1.3,-9.1,-0.6
8.47,1.3,-9.1,-0.7
8.475,1.3,-9.4,-0.8
8.479,1.3,-9.8,-1.3
8.592,1.3,-10.0,-1.6
8.598,1.3,-9.8,-1.5
8.599,1.2,-9.6,-1.4
8.697,1.2,-9.6,-1.5
8.699,1.2,-9.5,-1.5
8.7,1.1,-9.7,-1.5
8.702,1.2,-9.8,-1.6
8.711,1.2,-9.6,-1.5
8.794,1.3,-9.6,-1.4
8.803,1.3,-9.7,-1.4
8.805,1.3,-9.4,-1.2
8.808,1.2,-9.4,-1.1
8.895,1.1,-9.5,-1.2
8.897,1.2,-9.8,-1.3
8.902,1.2,-9.8,-1.4
8.998,1.3,-9.6,-1.6
8.999,1.3,-9.7,-1.7
9.001,1.2,-9.7,-1.7
9.003,1.2,-9.7,-1.6
9.069,1.1,-9.5,-1.3
9.07,1.2,-9.6,-1.2
9.072,1.2,-9.6,-1.2
9.074,1.1,-9.6,-1.2
9.171,1.3,-9.6,-1.5
9.181,1.2,-9.7,-1.5
9.182,1.3,-9.6,-1.6
9.184,1.2,-9.6,-1.5
9.298,1.2,-9.5,-1.4
9.3,1.2,-9.5,-1.2
9.302,1.3,-9.7,-1.4
9.303,1.3,-9.6,-1.4
9.397,1.3,-9.7,-1.4
9.399,1.1,-9.7,-1.5
9.4,1.1,-9.6,-1.5
9.402,1.4,-9.6,-1.4
9.494,1.0,-9.6,-1.4
9.497,1.0,-9.7,-1.4
9.503,1.2,-9.7,-1.5
9.505,1.3,-9.6,-1.5
9.595,1.3,-9.6,-1.5
9.598,1.3,-9.6,-1.5
9.6,1.3,-9.7,-1.4
9.602,1.3,-9.6,-1.2
9.693,1.2,-9.7,-1.3
9.701,1.3,-9.6,-1.3
9.702,1.2,-9.6,-1.4
9.704,1.2,-9.8,-1.5
9.793,1.1,-9.7,-1.6
9.799,1.2,-9.7,-1.5
9.802,1.1,-9.6,-1.4
9.804,1.4,-9.7,-1.4
9.895,1.3,-9.6,-1.3
9.897,1.2,-9.6,-1.3
9.898,1.2,-9.6,-1.4
9.904,1.2,-9.6,-1.4
9.993,1.2,-9.8,-1.3
9.998,1.2,-9.6,-1.3
10.0,1.2,-9.6,-1.5
10.001,1.2,-9.6,-1.5
10.093,1.3,-9.5,-1.4
10.095,1.3,-9.7,-1.4
10.097,1.2,-9.7,-1.3
10.098,1.3,-9.6,-1.2
10.171,1.3,-9.5,-1.4
10.172,1.2,-9.6,-1.4
10.174,1.2,-9.7,-1.5
10.176,1.2,-9.8,-1.5
10.268,1.2,-9.7,-1.5
10.27,1.2,-9.5,-1.4
10.271,1.3,-9.6,-1.5
10.395,1.3,-9.7,-1.5
10.398,1.3,-9.8,-1.4
10.4,1.3,-9.7,-1.4
10.401,1.2,-9.6,-1.3
10.475,1.2,-9.4,-1.2
10.478,1.2,-9.5,-1.1
10.48,1.3,-9.8,-1.2
10.481,1.4,-9.8,-1.4
10.486,1.2,-9.7,-1.4
10.57,1.2,-9.7,-1.5
10.577,1.3,-9.6,-1.3
10.578,1.3,-9.6,-1.3
10.668,1.2,-9.7,-1.3
10.671,1.3,-9.7,-1.2
10.673,1.4,-9.6,-1.3
10.683,1.2,-9.7,-1.3
10.768,1.2,-9.5,-1.3
10.771,1.3,-9.6,-1.4
10.773,1.3,-9.8,-1.4
10.775,1.3,-9.7,-1.3
10.868,1.3,-9.6,-1.4
10.872,1.3,-9.6,-1.4
10.873,1.2,-9.6,-1.4
10.875,1.2,-9.8,-1.4
10.988,1.3,-9.6,-1.4
10.997,1.2,-9.7,-1.2
10.999,1.2,-9.5,-1.3
11.0,1.2,-9.5,-1.3
11.069,1.3,-9.7,-1.3
11.072,1.3,-9.7,-1.4
11.082,1.3,-9.7,-1.5
11.083,1.3,-9.6,-1.5
11.171,1.3,-9.6,-1.5
11.176,1.3,-9.6,-1.2
11.178,1.2,-9.7,-1.2
11.18,1.3,-9.6,-1.1
11.3,1.3,-9.6,-1.2
11.303,1.3,-9.6,-1.4
11.305,1.3,-9.7,-1.4
11.306,1.3,-9.7,-1.5
11.394,1.3,-9.8,-1.5
11.398,1.2,-9.6,-1.3
11.399,1.2,-9.5,-1.3
11.401,1.3,-9.6,-1.3
11.407,1.2,-9.6,-1.3
11.505,1.5,-9.7,-1.4
11.507,1.3,-9.8,-1.5
11.509,1.2,-9.7,-1.5
11.511,1.1,-9.5,-1.5
11.599,1.2,-9.6,-1.2
11.602,1.3,-9.7,-1.3
11.603,1.3,-9.8,-1.4
11.605,1.3,-9.6,-1.4
11.695,1.3,-9.5,-1.4
11.697,1.3,-9.6,-1.4
11.698,1.4,-9.7,-1.2
11.7,1.3,-9.7,-1.2
11.794,1.3,-9.6,-1.3
11.796,1.2,-9.6,-1.4
11.798,1.2,-9.6,-1.4
11.799,1.3,-9.7,-1.5
11.897,1.3,-9.7,-1.5
11.898,1.3,-9.6,-1.5
11.9,1.3,-9.6,-1.4
11.902,1.2,-9.5,-1.3
11.994,1.3,-9.7,-1.3
11.996,1.2,-9.6,-1.3
11.998,1.3,-9.6,-1.4
11.999,1.4,-9.7,-1.6
12.094,1.3,-9.7,-1.4
12.096,1.2,-9.5,-1.3
12.098,1.2,-9.6,-1.3
12.099,1.3,-9.7,-1.3
12.196,1.2,-9.7,-1.4
12.198,1.3,-9.7,-1.5
12.199,1.3,-9.5,-1.5
12.305,1.3,-9.7,-1.5
12.341,1.3,-9.7,-1.4
12.343,1.3,-9.6,-1.3
12.345,1.2,-9.6,-1.2
12.401,1.2,-9.6,-1.3
12.404,1.3,-9.6,-1.4
12.409,1.3,-9.8,-1.6
12.411,1.3,-9.8,-1.6
12.468,1.2,-9.7,-1.4
12.471,1.3,-9.5,-1.2
12.473,1.2,-9.6,-1.2
12.474,1.2,-9.6,-1.2
12.591,1.3,-9.6,-1.2
12.595,1.3,-9.7,-1.5
12.596,1.3,-9.6,-1.6
12.669,1.4,-9.8,-1.8
12.671,1.3,-9.8,-1.6
12.681,1.2,-9.4,-1.5
12.682,1.2,-9.6,-1.5
12.684,1.3,-9.7,-1.4
12.791,1.3,-9.7,-1.4
12.794,1.3,-9.6,-1.5
12.796,1.3,-9.5,-1.6
12.895,1.3,-9.6,-1.5
12.897,1.3,-9.6,-1.5
12.9,1.3,-9.7,-1.3
12.902,1.3,-9.5,-1.4
12.903,1.3,-9.4,-1.3
12.994,1.2,-9.4,-1.3
12.998,1.1,-9.8,-1.5
13.019,1.2,-9.9,-1.7
13.021,1.2,-9.7,-1.8
13.092,1.2,-9.7,-1.8
13.098,1.2,-9.6,-1.6
13.1,1.2,-9.6,-1.4
13.102,1.2,-9.7,-1.4
13.194,1.2,-9.5,-1.4
13.199,1.2,-9.6,-1.5
13.201,1.2,-9.6,-1.5
13.202,1.3,-9.5,-1.5
13.33,1.3,-9.7,-1.6
13.335,1.2,-9.6,-1.6
13.337,1.2,-9.5,-1.5
13.338,1.2,-9.6,-1.5
13.401,1.1,-9.6,-1.4
13.413,1.2,-9.8,-1.6
13.415,1.2,-9.5,-1.6
13.417,1.2,-9.6,-1.6
13.492,1.2,-9.6,-1.6
13.496,1.4,-10.0,-1.6
13.497,1.6,-10.5,-1.7
13.499,0.8,-12.3,-1.8
13.592,0.6,-13.3,-1.8
13.603,1.8,-17.5,-2.8
13.605,0.9,-19.0,-3.2
13.611,1.8,-20.3,-4.4
13.692,1.7,-20.1,-4.2
13.696,0.9,-18.6,-4.1
13.697,0.4,-18.1,-4.6
13.699,0.0,-16.3,-4.8
13.771,0.3,-13.7,-3.7
13.795,-0.2,-7.7,-2.6
13.797,0.2,-4.9,-1.9
13.798,-0.2,-2.2,-1.6
13.865,-0.2,0.1,-1.1
13.88,1.0,4.2,-2.6
13.968,0.8,4.3,-2.3
13.97,-0.6,3.4,-3.1
13.972,-0.9,4.3,-5.0
13.975,1.1,7.1,-7.4
14.067,1.6,7.8,-8.0
14.069,1.9,7.9,-7.8
14.071,1.6,7.6,-7.4
14.074,-0.1,6.9,-7.7
14.171,0.7,6.7,-7.9
14.173,1.3,7.0,-8.5
14.185,1.7,6.4,-8.5
14.189,1.5,5.8,-8.9
14.273,1.6,5.5,-9.1
14.278,1.9,5.5,-9.6
14.28,1.6,5.1,-9.3
14.321,1.8,5.0,-9.2
14.37,1.8,5.1,-8.8
14.374,1.7,4.6,-8.4
14.377,2.0,4.9,-8.1
14.381,2.5,5.2,-8.1
14.472,2.7,5.7,-8.0
14.473,2.9,5.3,-8.3
14.475,2.9,5.4,-8.1
14.478,3.1,4.9,-8.5
14.568,2.9,5.1,-8.0
14.577,2.7,5.0,-7.8
14.579,2.9,4.9,-7.7
14.592,3.4,5.6,-7.8
