accel_time_list,accel_x_list,accel_y_list,accel_z_list
0.0,-0.3,3.4,9.0
0.002,0.0,3.8,9.0
0.003,0.2,4.3,9.1
0.005,0.2,4.1,8.8
0.123,-0.0,3.9,9.1
0.124,0.3,4.4,8.8
0.126,0.3,4.5,8.8
0.127,0.0,4.4,9.0
0.228,0.0,3.5,8.4
0.23,-0.6,3.8,8.3
0.231,-0.9,4.0,7.8
0.233,-0.7,3.8,7.2
0.325,-0.6,3.0,7.1
0.33,0.0,3.2,7.3
0.332,-0.8,4.0,7.1
0.334,-1.4,3.6,6.1
0.426,-1.8,1.7,4.5
0.427,-2.1,2.1,4.3
0.429,-2.6,1.7,4.6
0.431,-3.8,0.5,5.2
0.5,-4.4,-2.0,7.8
0.501,-4.4,-3.0,7.7
0.503,-5.3,-2.9,7.0
0.508,-6.9,-3.0,6.6
0.624,-9.7,-3.1,7.0
0.626,-10.2,-3.8,6.1
0.628,-10.7,-4.8,5.2
0.629,-11.6,-5.3,4.2
0.709,-12.5,-6.5,3.5
0.71,-13.2,-7.2,3.8
0.712,-13.8,-7.4,4.4
0.723,-13.3,-6.7,4.5
0.823,-11.8,-4.6,4.9
0.824,-11.5,-2.1,5.6
0.826,-11.0,0.1,5.1
0.927,-10.2,0.1,4.4
0.933,-9.8,-2.3,3.1
0.935,-9.3,-3.1,3.0
0.936,-8.9,-3.8,3.0
0.941,-9.0,-4.0,2.9
1.027,-9.2,-4.4,3.2
1.029,-9.5,-3.5,3.5
1.031,-9.8,-2.5,3.7
1.035,-9.9,-1.6,3.5
1.124,-9.2,-1.0,2.8
1.126,-9.3,-1.4,2.7
1.137,-9.5,-1.8,2.7
1.14,-9.3,-2.0,2.7
1.228,-9.0,-1.8,2.7
1.23,-9.2,-1.4,2.8
1.232,-9.1,-1.3,2.7
1.237,-9.0,-1.4,2.6
1.328,-8.8,-1.5,2.8
1.329,-8.8,-1.6,2.8
1.331,-8.7,-1.6,2.8
1.332,-8.6,-1.8,2.9
1.431,-8.8,-1.8,3.0
1.433,-8.8,-1.6,3.1
1.434,-8.8,-1.6,3.0
1.436,-8.8,-1.7,3.1
1.527,-9.0,-1.7,3.2
1.539,-9.0,-1.9,3.1
1.541,-9.2,-2.0,3.3
1.543,-9.4,-2.1,3.4
1.629,-9.2,-2.1,3.6
1.63,-9.2,-1.9,3.5
1.632,-9.1,-1.8,3.5
1.634,-9.0,-1.6,3.5
1.726,-8.8,-1.8,3.3
1.731,-8.9,-2.0,3.2
1.733,-9.0,-2.2,3.3
1.735,-9.0,-2.3,3.5
1.83,-9.2,-2.2,3.5
1.832,-9.1,-2.2,3.4
1.834,-9.1,-2.2,3.4
1.835,-9.1,-2.2,3.3
1.936,-9.2,-2.1,3.4
1.937,-9.3,-1.8,3.4
1.939,-9.3,-1.8,3.1
1.941,-9.2,-2.0,3.1
2.026,-9.0,-2.2,3.3
2.034,-8.9,-2.2,3.1
2.036,-8.9,-2.1,3.1
2.037,-8.9,-1.9,3.1
2.127,-9.0,-1.9,3.1
2.128,-8.9,-1.7,3.4
2.134,-9.0,-1.6,3.3
2.136,-8.9,-1.5,3.1
2.245,-9.0,-1.5,3.3
2.246,-9.3,-1.2,3.5
2.248,-9.7,-0.9,3.1
2.249,-9.0,-0.9,3.0
2.331,-9.4,-0.4,3.0
2.333,-9.6,-0.6,2.8
2.335,-9.7,-1.0,2.7
2.337,-9.0,-0.9,2.6
2.431,-8.3,-0.8,2.3
2.433,-9.1,-1.1,2.1
2.436,-10.0,-1.0,2.1
2.438,-9.9,-0.9,2.5
2.526,-8.2,-1.2,2.6
2.528,-8.3,-1.6,2.6
2.53,-8.6,-1.7,3.0
2.531,-8.8,-1.8,3.1
2.631,-9.4,-1.7,3.9
2.633,-10.1,-1.1,3.8
2.635,-10.3,-0.8,3.7
2.646,-10.0,-1.2,4.1
2.73,-10.4,-1.7,4.4
2.732,-9.7,-2.3,4.4
2.734,-10.2,-2.7,4.7
2.735,-12.1,-2.8,4.7
2.827,-11.9,-2.4,4.3
2.828,-10.3,-2.5,4.3
2.835,-10.2,-2.4,4.4
2.925,-10.7,-2.0,4.6
2.929,-9.4,-2.7,4.0
2.933,-11.4,-2.8,3.2
2.936,-13.5,-2.4,2.5
3.025,-14.0,-2.2,2.1
3.032,-13.9,-1.5,1.9
3.034,-12.6,-1.6,1.7
3.045,-11.6,-2.1,2.0
3.125,-11.4,-2.5,2.1
3.128,-11.2,-3.1,1.8
3.13,-10.9,-3.2,1.2
3.133,-10.8,-3.3,0.6
3.234,-10.3,-2.9,0.4
3.237,-8.9,-2.1,0.8
3.239,-8.4,-2.0,1.0
3.246,-7.6,-1.9,1.4
3.324,-7.1,-1.9,1.4
3.328,-6.2,-1.9,1.2
3.329,-6.1,-1.7,1.2
3.331,-6.2,-1.5,1.2
3.425,-7.1,-1.5,1.2
3.432,-8.4,-1.6,2.6
3.444,-8.2,-1.6,4.8
3.446,-8.2,-1.0,6.3
3.525,-7.3,-0.3,6.4
3.528,-7.3,0.7,5.2
3.533,-9.4,1.5,4.5
3.535,-11.4,1.8,3.6
3.624,-12.1,2.1,3.1
3.627,-11.6,0.3,2.8
3.629,-11.1,-0.7,3.3
3.63,-10.3,-1.5,3.8
3.724,-10.1,-1.8,3.8
3.732,-9.9,-1.8,3.9
3.734,-9.7,-2.0,4.0
3.735,-9.9,-2.2,3.9
3.824,-10.3,-2.2,3.6
3.838,-10.4,-2.0,3.9
3.847,-10.2,-1.4,4.4
3.849,-9.8,-1.5,4.5
3.929,-9.5,-1.8,4.7
3.933,-8.6,-2.8,5.2
3.934,-9.5,-3.2,5.1
3.936,-12.2,-3.5,5.1
4.024,-15.6,-3.4,5.1
4.028,-12.9,-3.3,5.0
4.032,-12.3,-2.9,4.1
4.034,-13.0,-1.8,3.5
4.124,-13.4,-0.9,3.3
4.128,-12.7,-1.9,2.7
4.129,-13.3,-1.7,2.5
4.135,-13.1,-1.4,2.3
4.224,-12.3,-1.2,2.4
4.238,-11.4,-0.9,2.6
4.248,-11.1,-0.8,2.5
4.249,-10.7,-1.0,2.1
4.324,-10.1,-1.3,1.8
4.328,-9.3,-1.4,1.3
4.329,-8.9,-1.5,1.0
4.331,-8.5,-1.4,1.0
4.424,-7.9,-1.2,1.3
4.431,-7.0,-1.1,1.7
4.433,-7.3,-1.1,1.9
4.524,-7.4,-1.2,2.3
4.526,-7.0,-1.2,2.4
4.533,-8.1,-1.0,3.3
4.535,-7.9,-1.1,4.4
4.624,-8.2,-1.2,6.0
4.637,-7.9,-0.9,7.0
4.642,-8.3,-1.0,4.7
4.652,-10.6,-0.9,3.4
4.725,-11.4,-0.3,3.4
4.726,-10.7,0.4,3.8
4.734,-9.4,-0.8,3.6
4.736,-9.3,-1.4,3.5
4.824,-9.6,-2.0,3.2
4.826,-10.0,-2.7,2.9
4.829,-9.5,-2.9,2.9
4.831,-9.2,-3.0,2.6
4.929,-9.7,-3.2,2.4
4.931,-9.9,-3.2,2.7
4.934,-9.7,-2.8,3.3
4.936,-9.8,-2.7,3.5
5.029,-10.2,-2.4,3.7
5.031,-10.9,-2.2,4.0
5.034,-12.4,-1.9,4.0
5.036,-12.7,-1.7,4.3
5.124,-12.4,-1.6,4.6
5.125,-11.7,-1.8,5.0
5.133,-10.7,-2.4,5.6
5.135,-10.0,-2.5,5.4
5.223,-9.5,-2.6,5.0
5.225,-9.0,-2.1,4.7
5.233,-8.9,-2.0,3.5
5.235,-10.6,-2.1,3.1
5.324,-13.5,-2.8,3.4
5.326,-19.5,-3.1,2.5
5.329,-19.2,-2.3,0.2
5.342,-16.2,-1.4,0.4
5.425,-16.2,-0.1,1.8
5.427,-16.3,1.6,2.4
5.431,-12.9,-0.7,1.6
5.433,-11.7,-2.6,1.0
5.524,-11.0,-3.5,0.4
5.526,-10.3,-3.4,-0.1
5.535,-8.1,-2.5,-1.0
5.536,-7.1,-1.5,-0.5
5.624,-6.0,-0.5,0.1
5.625,-4.7,-0.0,0.9
5.633,-4.4,-1.0,2.0
5.635,-4.7,-1.1,2.4
5.724,-4.4,-1.2,2.7
5.726,-4.5,-1.1,2.8
5.739,-4.5,-0.4,2.2
5.742,-4.5,0.1,2.7
5.824,-4.8,0.0,3.6
5.829,-5.6,-2.0,4.8
5.832,-8.5,-3.4,7.3
5.835,-9.3,-3.8,7.5
5.924,-9.8,-3.4,6.7
5.925,-10.9,-2.3,6.8
5.933,-12.7,-3.7,5.2
5.936,-11.8,-6.3,4.1
6.024,-10.7,-7.0,4.6
6.026,-9.9,-6.2,5.1
6.029,-8.1,-6.3,3.4
6.031,-8.1,-5.8,3.4
6.123,-8.4,-5.2,4.0
6.125,-8.0,-5.2,3.2
6.143,-7.1,-5.3,2.8
6.224,-6.8,-4.8,3.1
6.226,-6.3,-4.1,3.6
6.227,-6.1,-3.3,4.3
6.23,-6.6,-3.6,4.2
6.326,-7.4,-3.9,4.1
6.327,-8.3,-4.0,4.0
6.329,-9.6,-4.1,3.7
6.332,-11.7,-3.6,3.4
6.424,-11.5,-3.5,3.7
6.425,-12.3,-4.0,3.8
6.427,-14.1,-4.3,3.7
6.43,-12.9,-4.4,2.3
6.524,-12.3,-4.2,1.6
6.525,-16.2,-4.5,0.6
6.537,-20.8,-4.1,-1.3
6.541,-15.1,-1.9,-1.7
6.625,-12.4,-1.6,-0.5
6.627,-12.6,-2.0,0.8
6.628,-13.9,-2.0,1.2
6.632,-11.0,-0.5,1.7
6.724,-9.9,0.2,3.5
6.726,-10.6,1.0,3.3
6.732,-10.7,4.5,2.6
6.735,-6.5,4.7,7.7
6.824,-7.6,0.8,7.7
6.825,-7.2,0.1,8.2
6.827,-6.7,2.4,8.0
6.83,-7.9,-0.2,7.9
6.923,-4.5,-2.4,7.1
6.935,-0.1,-7.8,5.4
6.945,-1.9,-8.1,4.7
6.949,-12.3,2.7,10.6
7.024,-9.7,9.7,14.5
7.031,-5.3,15.9,16.7
7.032,-12.1,14.3,17.4
7.036,-12.9,4.3,12.4
7.124,-10.2,1.0,15.4
7.125,-19.0,-0.7,14.8
7.127,-23.7,-5.3,13.5
7.13,-20.7,-19.4,5.3
7.224,-21.0,-14.0,-6.0
7.225,-17.0,-5.3,-21.8
7.227,-12.6,1.7,-32.5
7.231,-18.4,15.7,-39.0
7.324,-24.3,13.1,-33.8
7.325,-23.5,5.6,-26.0
7.327,-26.1,-12.7,-20.8
7.33,2.8,-16.7,-9.8
7.424,9.0,-15.5,17.3
7.425,2.5,-4.8,32.4
7.427,-1.8,-0.7,39.2
7.43,0.3,-21.9,39.2
7.524,-27.9,31.0,39.2
7.525,-10.3,2.1,39.2
7.527,-23.5,-1.3,10.5
7.53,-11.0,2.8,15.6
7.623,-17.5,10.2,13.6
7.625,-22.4,-0.5,-0.0
7.627,-21.1,-4.6,-16.4
7.641,-3.3,-1.4,-18.9
7.723,-2.0,-1.5,-30.4
7.724,5.4,-11.2,-31.5
7.726,7.3,-7.6,-20.1
7.823,20.6,0.3,-17.9
7.826,17.9,-2.1,-12.1
7.828,15.1,-3.3,-5.6
7.831,10.3,-11.0,-3.8
7.923,-3.0,-16.8,1.8
7.925,-6.0,-9.7,10.4
7.927,-2.0,-7.6,11.8
7.933,2.1,-7.1,7.4
8.027,1.5,-4.4,12.9
8.029,2.5,-7.2,15.3
8.031,2.7,-5.4,15.7
8.033,3.0,-6.1,15.3
8.125,4.3,-6.7,12.1
8.127,2.5,-7.1,9.7
8.134,1.7,-5.8,8.3
8.136,1.2,-5.4,7.1
8.223,1.2,-6.1,6.7
8.225,1.4,-6.3,6.1
8.227,0.7,-6.5,4.7
8.228,1.3,-9.1,3.3
8.323,0.0,-7.9,4.0
8.325,-0.4,-7.8,4.2
8.327,0.6,-7.8,4.5
8.328,2.2,-7.8,4.3
8.423,2.9,-9.5,6.0
8.429,2.8,-10.1,6.2
8.43,2.5,-9.8,5.3
8.443,1.7,-8.8,4.1
8.523,0.8,-8.1,4.7
8.525,1.0,-8.8,5.4
8.527,1.5,-8.6,5.9
8.533,1.6,-8.1,6.2
8.623,1.3,-7.5,5.4
8.624,1.3,-7.3,5.2
8.626,1.2,-7.4,5.0
8.627,1.1,-7.5,5.3
8.723,1.2,-7.7,6.0
8.725,1.1,-7.8,6.1
8.727,0.8,-7.9,6.2
8.728,0.9,-7.8,6.2
8.823,1.2,-7.2,6.1
8.831,1.3,-7.5,6.0
8.843,1.4,-7.9,5.6
8.845,1.4,-7.8,5.5
8.923,1.5,-8.1,5.4
8.924,1.1,-8.0,5.5
8.926,0.9,-8.0,5.5
8.928,0.9,-8.1,5.4
9.025,0.9,-8.3,5.5
9.026,1.0,-8.2,5.6
9.033,1.1,-7.9,5.7
9.035,1.1,-7.8,5.7
9.13,1.1,-7.7,5.7
9.132,1.2,-7.7,5.7
9.134,1.2,-7.6,5.7
9.135,1.1,-7.5,5.8
9.223,1.1,-7.6,5.7
9.235,1.1,-8.1,5.8
9.237,1.1,-8.2,5.8
9.239,1.1,-8.2,5.8
9.328,1.1,-7.9,5.6
9.33,1.1,-7.8,5.6
9.332,1.1,-7.7,5.5
9.334,1.0,-7.7,5.6
9.422,1.1,-7.8,5.8
9.424,1.0,-7.7,5.7
9.426,1.1,-7.7,5.8
9.427,1.2,-7.7,5.7
9.529,0.9,-8.0,5.9
9.531,1.0,-8.0,5.9
9.533,1.1,-8.0,5.9
9.534,1.1,-8.0,5.7
9.636,1.1,-7.8,5.4
9.645,1.2,-7.8,5.5
9.648,1.1,-8.0,5.6
9.649,1.2,-7.9,5.7
9.726,1.2,-7.8,5.8
9.727,1.1,-7.9,5.8
9.729,1.1,-7.9,5.9
9.731,1.1,-7.9,5.8
9.825,1.1,-7.9,5.7
9.826,1.0,-7.9,5.7
9.828,1.0,-8.0,5.7
9.829,1.0,-8.0,5.7
9.926,1.1,-8.0,5.7
9.927,1.1,-7.9,5.7
9.929,1.1,-7.8,5.7
9.931,1.1,-7.9,5.7
10.024,1.0,-7.9,5.7
10.026,1.2,-7.9,5.7
10.028,1.2,-7.9,5.7
10.029,1.0,-7.9,5.7
10.131,1.0,-7.8,5.7
10.146,1.0,-7.9,5.7
10.148,1.0,-8.1,5.8
10.15,1.1,-8.0,5.9
10.224,1.1,-7.8,5.6
10.226,1.0,-7.9,5.7
10.228,1.0,-7.9,5.7
10.229,1.1,-7.9,5.8
10.325,1.1,-7.9,5.6
10.326,1.0,-7.8,5.6
10.328,1.0,-7.8,5.7
10.344,1.0,-7.9,5.8
10.424,1.1,-8.0,5.8
10.426,1.1,-8.0,5.8
10.428,1.0,-8.0,5.7
10.43,1.0,-7.9,5.7
10.529,1.1,-7.9,5.7
10.531,1.1,-8.0,5.7
10.533,1.1,-7.9,5.8
10.534,1.1,-7.9,5.7
10.625,1.0,-7.8,5.7
10.626,1.0,-7.9,5.8
10.628,1.1,-8.0,5.8
10.63,1.1,-7.9,5.8
10.724,1.0,-7.9,5.7
10.726,1.1,-7.8,5.7
10.738,1.1,-7.9,5.7
10.74,1.1,-7.9,5.7
10.824,1.0,-7.9,5.8
10.826,1.1,-7.9,5.8
10.828,0.9,-7.8,5.7
10.829,1.1,-7.9,5.7
10.924,1.0,-7.9,5.7
10.926,1.0,-7.8,5.8
10.927,1.0,-7.9,5.8
10.929,0.9,-7.9,5.8
11.023,1.1,-8.0,5.8
11.025,1.1,-7.9,5.7
11.027,1.1,-7.9,5.6
11.15,1.1,-7.9,5.7
11.153,1.1,-7.9,5.7
11.164,1.1,-7.8,5.7
11.166,1.0,-7.9,5.7
11.24,1.0,-7.9,5.8
11.244,1.0,-7.9,5.9
11.249,1.0,-7.9,5.9
11.25,1.0,-7.9,5.8
11.322,1.0,-7.9,5.8
11.335,1.0,-7.8,5.7
11.337,1.0,-7.8,5.7
11.34,1.1,-7.9,5.7
11.424,1.1,-7.9,5.7
11.429,1.1,-7.9,5.8
11.43,1.1,-7.9,5.8
11.432,1.0,-7.9,5.8
11.547,1.0,-7.9,5.9
11.561,1.0,-7.8,5.8
11.563,1.1,-7.8,5.8
11.565,1.1,-7.8,5.8
11.645,1.0,-7.8,5.8
11.651,1.0,-8.0,5.8
11.653,1.0,-7.9,5.8
11.655,0.9,-7.9,5.8
11.656,1.1,-7.9,5.8
11.723,1.0,-7.9,5.8
11.726,1.0,-7.8,5.7
11.727,1.0,-7.9,5.8
11.822,1.0,-8.0,5.9
11.83,0.9,-7.6,6.2
11.832,0.9,-7.6,5.8
11.833,1.1,-8.2,5.8
11.947,1.1,-8.2,5.7
11.963,1.3,-8.1,5.4
11.973,1.3,-7.8,5.2
11.975,1.2,-7.8,5.1
12.051,1.1,-7.7,5.3
12.054,1.1,-7.8,5.6
12.056,1.1,-8.0,5.7
12.058,1.1,-8.0,5.8
12.059,1.1,-8.1,5.8
12.127,1.1,-7.9,5.9
12.129,1.0,-8.0,5.9
12.13,1.0,-8.0,5.8
12.222,1.0,-8.0,5.7
12.226,1.0,-7.9,5.7
12.227,1.1,-7.8,5.7
12.229,1.1,-7.8,5.7
12.323,1.1,-7.8,5.7
12.326,1.1,-7.9,5.8
12.328,1.0,-8.0,5.8
12.329,1.0,-8.0,5.8
12.423,1.0,-7.9,5.8
12.427,1.0,-7.9,5.7
12.429,1.1,-7.9,5.7
12.435,1.2,-7.9,5.7
12.522,1.0,-7.9,5.8
12.53,0.9,-7.9,5.8
12.531,0.9,-7.9,5.9
12.534,1.0,-7.9,5.8
12.623,1.0,-7.9,5.7
12.626,1.1,-7.9,5.6
12.627,1.1,-7.9,5.7
12.639,1.0,-8.0,5.7
12.721,1.0,-7.9,5.7
12.725,1.0,-7.9,5.8
12.726,0.9,-7.8,5.8
12.822,0.9,-7.9,5.9
12.824,0.9,-7.9,5.9
12.831,1.0,-7.9,5.8
12.833,1.0,-7.9,5.7
12.922,1.0,-7.9,5.6
12.925,1.0,-7.9,5.6
12.929,1.0,-7.9,5.7
12.931,1.0,-7.9,5.7
13.022,1.0,-7.9,5.8
13.024,1.0,-7.9,5.9
13.027,0.8,-8.6,6.5
13.04,0.7,-10.8,7.0
13.126,0.3,-10.8,7.2
13.127,0.7,-9.4,7.6
13.131,1.3,-16.1,7.0
13.132,1.1,-13.0,7.8
13.222,1.6,-10.7,7.4
13.224,2.2,-13.3,8.0
13.232,2.5,-12.1,9.2
13.233,2.9,-13.0,7.8
13.322,2.8,-11.8,7.4
13.324,2.5,-10.1,8.0
13.327,2.6,-8.4,6.2
13.329,3.2,-7.3,5.3
13.397,3.0,-5.5,4.9
13.399,3.0,-3.2,3.9
13.414,3.8,-0.3,1.1
13.416,4.0,0.5,1.5
13.52,3.3,3.9,0.4
13.522,2.8,6.3,-0.8
13.527,4.3,5.1,-5.4
13.624,4.4,5.6,-4.5
13.625,2.7,5.8,-3.9
13.627,2.0,7.3,-3.7
13.63,3.9,7.2,-7.4
13.632,3.9,7.4,-7.9
13.722,4.1,7.8,-6.9
13.724,4.5,6.8,-6.2
13.732,7.7,5.1,-7.3
13.734,5.7,4.1,-7.5
13.822,4.1,5.4,-6.8
13.829,3.9,7.1,-6.7
13.844,4.2,6.4,-7.1
13.846,4.5,6.1,-7.9
13.922,4.2,7.7,-7.2
13.927,4.0,7.8,-6.6
13.931,4.0,5.9,-6.2
13.932,4.5,5.9,-6.2
14.026,5.0,6.2,-5.5
14.027,4.7,6.1,-5.5
14.062,4.7,7.0,-5.2
14.064,4.4,5.9,-5.7
14.122,5.1,6.1,-6.0
14.124,4.8,6.7,-5.9
14.127,3.5,5.7,-6.3
14.128,5.4,5.4,-5.8
14.223,4.9,5.6,-5.5
14.265,4.4,6.9,-5.5
14.27,5.5,4.7,-6.3
14.276,1.0,5.2,-5.5
14.35,6.7,4.8,-4.9
14.352,7.2,6.5,-5.2
14.362,5.0,7.6,-5.0
14.364,4.8,6.1,-4.4
14.42,6.6,5.9,-4.5
14.422,5.2,6.2,-5.7
14.523,6.4,5.4,-3.4
14.525,4.8,6.3,-3.9
14.526,5.6,6.0,-5.1
14.528,6.2,5.1,-5.9
14.531,2.8,6.0,-4.5
14.623,5.9,5.5,-3.2
14.634,7.4,7.2,-3.8
14.636,10.5,6.1,-2.5
14.641,2.6,6.4,-5.1
14.722,4.9,6.9,-4.4
14.723,7.0,6.4,-4.1
14.725,5.2,6.0,-4.9
14.732,5.8,6.5,-5.6
14.83,6.5,6.7,-5.0
14.831,4.9,6.4,-5.3
14.833,4.4,6.9,-5.4
14.836,5.4,6.1,-6.1
14.924,4.9,6.6,-5.4
14.926,4.5,6.3,-5.6
14.927,7.2,4.8,-10.1
14.941,4.0,6.5,-5.3
15.023,6.9,5.8,-6.5
15.024,4.5,6.2,-5.9
15.026,4.3,6.3,-6.9
15.033,5.8,7.7,-5.0
15.122,5.5,7.1,-6.0
15.126,5.3,5.2,-6.5
15.132,4.2,6.8,-6.7
15.135,5.1,6.4,-6.6
15.245,5.7,5.8,-6.4
15.247,5.1,6.4,-6.1
15.249,4.9,7.0,-5.3
15.252,4.1,5.9,-5.8
15.336,5.1,5.3,-5.6
15.341,3.1,6.7,-5.8
15.342,2.4,7.3,-5.9
15.723,4.9,6.3,-5.5
15.728,2.1,6.3,-5.8
15.361,5.2,6.7,-4.9
15.426,3.4,6.5,-5.8
15.429,4.8,6.3,-5.4
15.431,7.2,6.4,-5.3
15.433,2.0,6.3,-5.2
15.521,4.9,7.4,-4.3
15.524,5.6,7.4,-4.8
15.526,5.5,5.8,-5.4
15.527,4.6,6.6,-5.2
15.623,4.3,6.9,-5.4
15.628,6.0,5.9,-5.8
15.63,6.1,6.3,-4.9
15.639,4.5,6.5,-4.9
15.697,3.1,5.9,-5.9
15.7,6.9,6.2,-5.8
