vertical_Accel_x,vertical_Accel_y,vertical_Accel_z,accel_time_list
2.197,-5.263,-7.859,0.0
2.351,-5.389,-7.757,0.002
0.606,-8.474,-7.282,0.003
6.297,-2.963,-7.659,0.005
1.906,-6.274,-8.182,0.126
1.626,-7.974,-6.142,0.128
2.305,-4.095,-6.968,0.129
3.445,-5.195,-7.988,0.131
2.452,-5.668,-7.471,0.133
1.671,-5.389,-7.517,0.228
2.279,-5.221,-8.126,0.229
2.578,-5.242,-8.113,0.231
2.357,-5.763,-7.739,0.237
2.162,-5.658,-7.707,0.239
2.235,-5.605,-7.752,0.24
2.427,-5.853,-7.956,0.301
2.398,-5.742,-7.873,0.303
2.327,-5.653,-7.656,0.304
2.483,-5.637,-7.381,0.31
2.648,-5.632,-7.329,0.322
2.651,-5.489,-7.157,0.424
2.734,-5.526,-6.838,0.426
2.715,-5.505,-6.392,0.428
3.987,-4.826,-5.396,0.529
3.835,-4.73,-4.878,0.53
3.617,-4.665,-4.239,0.532
3.435,-5.13,-3.878,0.534
3.109,-5.383,-3.87,0.535
1.661,-3.778,-3.587,0.537
-0.322,-1.543,-3.926,0.542
-1.418,0.033,-4.951,0.626
-1.674,0.432,-5.306,0.628
-1.684,0.03,-5.215,0.629
-1.87,-0.385,-4.984,0.631
-2.271,-0.131,-4.24,0.633
-2.234,1.063,-4.6,0.726
-2.997,1.83,-3.9,0.728
-4.347,3.735,-2.7,0.73
-5.814,5.561,-1.7,0.744
-6.71,8.701,-1.1,0.746
-1.231,12.78,-1.198,0.825
-2.512,13.218,-1.912,0.827
-3.586,13.496,-2.42,0.829
-4.839,14.625,-2.773,0.83
-2.527,17.617,0.334,0.927
-2.879,19.628,0.156,0.929
-2.147,20.574,0.748,0.93
-0.855,20.041,2.182,0.932
0.097,18.522,3.145,0.934
0.429,15.929,2.594,1.026
-0.71,14.39,-0.398,1.029
0.198,14.098,-0.42,1.031
1.135,13.635,1.253,1.033
2.055,12.755,1.349,1.036
4.54,11.896,2.856,1.127
4.754,12.538,4.285,1.128
4.111,12.21,5.299,1.13
3.543,10.929,5.086,1.143
3.016,9.865,5.048,1.145
1.56,9.604,5.236,1.226
2.101,9.509,4.79,1.228
2.435,9.551,4.514,1.229
2.463,9.631,4.306,1.234
2.213,9.826,3.961,1.236
1.3,9.6,4.2,1.327
1.1,9.5,4.1,1.328
1.1,9.8,4.0,1.33
1.1,10.1,3.9,1.332
0.9,10.1,3.7,1.333
0.7,10.2,3.6,1.426
0.7,10.5,3.5,1.432
0.7,10.9,3.4,1.434
0.6,11.2,3.3,1.435
0.5,11.2,3.1,1.437
1.523,11.1,2.615,1.526
1.446,11.0,2.431,1.528
1.408,10.9,2.338,1.539
1.369,10.6,2.246,1.549
1.369,10.1,2.246,1.551
0.064,9.756,2.431,1.626
0.018,9.542,2.475,1.627
0.236,9.284,2.349,1.629
0.155,8.965,2.304,1.631
0.109,8.751,2.347,1.632
-1.235,8.372,1.769,1.725
-1.125,7.88,1.692,1.727
-0.907,7.534,1.874,1.732
-0.7,7.5,2.0,1.733
-0.618,7.845,2.118,1.735
-0.733,8.233,2.333,1.826
-0.733,8.233,2.333,1.827
-0.573,8.182,2.373,1.829
-0.526,8.199,2.46,1.831
-0.589,8.389,2.456,1.832
1.915,8.4,2.777,1.926
2.046,8.7,2.831,1.937
2.177,9.2,2.885,1.94
2.362,9.4,2.808,1.942
2.4,9.7,2.9,1.944
1.451,10.451,1.11,2.033
1.325,10.825,0.955,2.035
1.296,11.296,0.761,2.036
1.378,12.078,0.584,2.038
1.549,12.349,0.39,2.04
3.804,10.939,0.796,2.126
3.878,9.784,0.822,2.132
3.816,9.457,0.684,2.134
3.539,9.592,0.561,2.135
3.384,9.843,0.616,2.137
3.116,10.057,0.884,2.23
3.022,10.116,1.078,2.231
3.08,9.904,1.12,2.233
3.041,9.712,1.159,2.235
2.982,9.424,1.218,2.236
2.845,9.251,1.255,2.328
2.747,9.271,1.253,2.33
2.647,9.271,1.153,2.331
2.549,9.29,1.151,2.338
2.527,9.175,1.073,2.339
1.801,9.211,1.71,2.426
1.78,9.102,1.622,2.427
1.758,9.082,1.424,2.429
1.669,9.192,1.423,2.431
1.668,9.281,1.313,2.432
1.678,9.38,1.302,2.527
1.569,9.292,1.323,2.529
1.46,9.204,1.344,2.532
1.451,9.105,1.355,2.534
0.512,9.212,0.618,2.626
0.437,9.037,0.773,2.627
0.539,8.839,0.792,2.629
0.557,8.957,0.869,2.635
0.555,9.055,0.849,2.637
0.649,9.249,0.79,2.725
0.547,9.447,0.771,2.727
0.453,9.253,0.829,2.729
0.163,9.063,0.927,2.734
-0.053,9.047,0.871,2.737
0.043,9.143,0.831,2.826
-0.039,9.361,0.908,2.827
-0.033,9.067,0.967,2.829
-0.006,8.694,1.141,2.83
-0.206,8.894,1.141,2.835
-0.271,9.229,1.294,2.926
0.12,9.42,1.696,2.928
0.253,9.653,1.829,2.929
-0.118,9.482,1.524,2.931
-0.557,8.843,1.431,2.932
-0.684,8.416,1.857,3.025
-0.992,8.208,2.378,3.031
-1.184,8.016,2.457,3.033
-0.578,8.122,2.416,3.035
0.333,8.633,2.333,3.048
2.774,8.666,0.178,3.125
4.021,8.659,-0.586,3.127
3.963,9.437,-0.479,3.129
3.432,9.948,0.651,3.13
3.468,10.912,1.329,3.132
2.015,11.215,-1.526,3.226
2.522,8.922,-1.689,3.227
2.189,9.289,-2.056,3.229
2.07,9.67,-1.348,3.235
1.819,10.419,-0.507,3.237
2.97,10.403,-1.435,3.325
2.938,10.664,-1.169,3.326
2.604,10.683,-0.702,3.328
2.448,10.573,-0.274,3.33
3.296,10.817,-0.298,3.331
2.838,11.526,0.215,3.425
2.443,10.762,-0.172,3.431
2.168,9.579,-0.296,3.433
3.166,9.311,0.298,3.446
3.945,8.93,0.434,3.448
5.516,7.504,1.637,3.525
6.896,7.249,1.841,3.527
11.851,6.488,4.29,3.529
12.949,11.912,5.51,3.534
5.033,12.108,5.173,3.536
5.192,5.51,4.359,3.626
5.516,6.58,3.282,3.628
6.843,6.471,5.114,3.629
5.782,6.898,2.508,3.631
7.043,6.671,0.714,3.633
6.712,8.357,-1.758,3.734
5.401,8.646,-1.838,3.736
5.993,7.875,-1.333,3.738
6.17,7.655,-0.294,3.739
5.442,7.102,-0.364,3.741
7.279,6.243,-0.617,3.825
7.921,6.357,-0.983,3.827
7.528,6.945,-0.998,3.846
6.711,7.879,-0.991,3.848
6.389,7.821,-0.809,3.85
5.94,7.719,-1.028,3.925
5.336,7.628,-0.751,3.927
5.381,7.538,-0.755,3.929
4.67,8.26,0.136,3.93
5.053,7.494,1.443,3.932
5.511,6.086,1.723,4.025
14.167,-1.267,1.167,4.027
5.083,6.071,2.866,4.032
8.347,6.933,3.427,4.033
10.651,3.586,1.703,4.035
10.622,3.381,0.21,4.151
10.226,4.143,-0.349,4.152
9.256,4.438,0.079,4.154
9.986,4.298,-0.302,4.16
8.477,7.069,2.092,4.227
-4.162,12.085,8.946,4.229
17.769,-2.208,-2.577,4.241
13.031,-1.592,0.777,4.243
7.762,4.015,0.354,4.245
4.8,8.9,3.3,4.255
6.954,6.138,2.485,4.257
8.233,1.721,0.178,4.323
7.815,3.054,-0.062,4.325
6.038,5.085,1.146,4.326
5.938,5.085,1.446,4.425
6.6,4.2,1.1,4.427
6.677,4.169,0.892,4.428
5.631,4.008,0.577,4.431
5.623,3.831,0.408,4.437
5.958,4.219,1.85,4.525
18.237,-1.071,1.374,4.531
8.595,6.548,0.024,4.533
13.104,9.762,0.941,4.534
10.578,6.719,-2.31,4.536
7.889,6.19,-2.88,4.625
5.638,6.316,-1.911,4.636
4.388,6.143,-1.542,4.638
4.195,6.268,-0.809,4.64
5.342,7.402,-0.264,4.641
6.701,8.846,1.062,4.725
6.451,9.173,0.231,4.731
5.612,8.957,-1.058,4.732
4.788,8.443,-2.142,4.734
4.113,8.303,-2.596,4.736
2.645,8.576,-4.035,4.826
3.073,8.758,-4.307,4.827
3.273,8.598,-4.687,4.829
3.218,8.155,-5.582,4.831
3.436,7.849,-5.444,4.832
2.262,7.781,-5.606,4.93
2.328,7.635,-5.45,4.932
2.517,7.714,-5.136,4.933
2.386,7.842,-5.217,4.935
2.386,7.842,-5.217,4.937
2.281,7.831,-5.311,5.028
2.263,7.699,-5.49,5.03
2.134,7.746,-5.456,5.032
2.151,7.878,-5.277,5.033
2.233,8.027,-5.172,5.035
2.21,8.084,-5.045,5.125
2.21,8.084,-5.045,5.127
2.21,8.084,-5.045,5.128
2.339,8.038,-5.079,5.13
2.275,8.02,-5.004,5.131
2.339,8.038,-5.079,5.225
2.339,8.038,-5.079,5.227
2.298,7.963,-5.131,5.228
2.233,8.027,-5.172,5.23
2.233,8.027,-5.172,5.232
2.274,8.102,-5.119,5.325
2.21,8.084,-5.045,5.327
2.233,8.027,-5.172,5.328
2.192,7.952,-5.224,5.33
2.256,7.97,-5.299,5.341
2.28,7.913,-5.426,5.425
2.086,7.942,-5.317,5.427
2.128,7.935,-5.15,5.429
2.169,8.01,-5.097,5.43
2.169,8.01,-5.097,5.432
2.192,7.952,-5.224,5.524
2.233,8.027,-5.172,5.526
2.233,8.027,-5.172,5.528
2.233,8.027,-5.172,5.534
2.233,8.027,-5.172,5.536
2.233,8.027,-5.172,5.624
2.321,7.906,-5.258,5.626
2.192,7.952,-5.224,5.628
2.298,7.963,-5.131,5.629
2.169,8.01,-5.097,5.631
2.233,8.027,-5.172,5.725
2.233,8.027,-5.172,5.726
2.169,8.01,-5.097,5.732
2.233,8.027,-5.172,5.744
2.233,8.027,-5.172,5.746
2.233,8.027,-5.172,5.827
2.233,8.027,-5.172,5.829
2.192,7.952,-5.224,5.831
2.192,7.952,-5.224,5.832
2.192,7.952,-5.224,5.927
2.192,7.952,-5.224,5.929
2.127,8.017,-5.265,5.93
2.192,7.952,-5.224,5.932
2.192,7.952,-5.224,5.934
2.192,7.952,-5.224,6.025
2.192,7.952,-5.224,6.026
2.192,7.952,-5.224,6.028
2.192,7.952,-5.224,6.034
2.233,8.027,-5.172,6.036
2.233,8.027,-5.172,6.15
2.256,7.97,-5.299,6.151
2.192,7.952,-5.224,6.153
2.192,7.952,-5.224,6.165
2.192,7.952,-5.224,6.174
2.192,7.952,-5.224,6.254
2.256,7.97,-5.299,6.255
2.127,8.017,-5.265,6.257
2.127,8.017,-5.265,6.259
2.168,8.091,-5.213,6.26
2.127,8.017,-5.265,6.262
2.192,7.952,-5.224,6.324
2.256,7.97,-5.299,6.325
2.192,7.952,-5.224,6.327
2.192,7.952,-5.224,6.333
2.192,7.952,-5.224,6.426
2.192,7.952,-5.224,6.428
2.192,7.952,-5.224,6.432
2.192,7.952,-5.224,6.434
2.127,8.017,-5.265,6.436
2.127,8.017,-5.265,6.525
2.127,8.017,-5.265,6.526
2.192,7.952,-5.224,6.538
2.192,7.952,-5.224,6.54
2.192,7.952,-5.224,6.543
2.192,7.952,-5.224,6.625
2.192,7.952,-5.224,6.627
2.191,8.034,-5.34,6.628
2.127,8.017,-5.265,6.63
2.192,7.952,-5.224,6.631
2.192,7.952,-5.224,6.725
2.256,7.97,-5.299,6.726
2.192,7.952,-5.224,6.728
2.192,7.952,-5.224,6.73
2.216,7.895,-5.351,6.731
2.192,7.952,-5.224,6.825
2.127,8.017,-5.265,6.827
2.127,8.017,-5.265,6.833
2.192,7.952,-5.224,6.835
2.256,7.97,-5.299,6.837
2.216,7.895,-5.351,6.925
2.216,7.895,-5.351,6.937
2.216,7.895,-5.351,6.939
2.216,7.895,-5.351,6.941
2.192,7.952,-5.224,6.943
2.127,8.017,-5.265,7.028
2.192,7.952,-5.224,7.029
2.192,7.952,-5.224,7.031
2.256,7.97,-5.299,7.033
2.256,7.97,-5.299,7.034
2.216,7.895,-5.351,7.125
2.256,7.97,-5.299,7.127
2.256,7.97,-5.299,7.128
2.256,7.97,-5.299,7.13
2.256,7.97,-5.299,7.131
2.257,7.888,-5.183,7.224
2.256,7.97,-5.299,7.226
2.216,7.895,-5.351,7.234
2.256,7.97,-5.299,7.236
2.256,7.97,-5.299,7.238
2.256,7.97,-5.299,7.333
2.192,7.952,-5.224,7.335
2.256,7.97,-5.299,7.336
2.192,7.952,-5.224,7.338
2.256,7.97,-5.299,7.339
2.192,7.952,-5.224,7.424
2.256,7.97,-5.299,7.426
2.216,7.895,-5.351,7.428
2.216,7.895,-5.351,7.434
2.256,7.97,-5.299,7.524
2.192,7.952,-5.224,7.529
2.192,7.952,-5.224,7.531
2.28,7.913,-5.426,7.533
2.192,7.952,-5.224,7.55
2.192,7.952,-5.224,7.624
2.216,7.895,-5.351,7.626
2.216,7.895,-5.351,7.628
2.216,7.895,-5.351,7.633
2.216,7.895,-5.351,7.635
2.216,7.895,-5.351,7.724
2.216,7.895,-5.351,7.726
2.216,7.895,-5.351,7.728
2.15,7.959,-5.392,7.729
2.127,8.017,-5.265,7.731
2.256,7.97,-5.299,7.824
2.216,7.895,-5.351,7.826
2.257,7.888,-5.183,7.828
2.192,7.952,-5.224,7.829
2.256,7.97,-5.299,7.831
2.216,7.895,-5.351,7.924
2.281,7.831,-5.311,7.926
2.192,7.952,-5.224,7.929
2.256,7.97,-5.299,7.93
2.256,7.97,-5.299,7.936
2.256,7.97,-5.299,8.024
2.256,7.97,-5.299,8.026
2.192,7.952,-5.224,8.028
2.256,7.97,-5.299,8.029
2.256,7.97,-5.299,8.041
2.256,7.97,-5.299,8.124
2.216,7.895,-5.351,8.126
2.216,7.895,-5.351,8.132
2.256,7.97,-5.299,8.134
2.192,7.952,-5.224,8.136
2.192,7.952,-5.224,8.224
2.256,7.97,-5.299,8.226
2.216,7.895,-5.351,8.229
2.256,7.97,-5.299,8.231
2.256,7.97,-5.299,8.237
2.256,7.97,-5.299,8.323
2.256,7.97,-5.299,8.325
2.256,7.97,-5.299,8.327
2.192,7.952,-5.224,8.328
2.233,8.027,-5.172,8.33
2.321,7.906,-5.258,8.424
2.256,7.97,-5.299,8.426
2.321,7.906,-5.258,8.431
2.321,7.906,-5.258,8.445
2.321,7.906,-5.258,8.447
2.281,7.831,-5.311,8.538
2.256,7.97,-5.299,8.54
2.256,7.97,-5.299,8.543
2.233,8.027,-5.172,8.545
2.192,7.952,-5.224,8.552
2.256,7.97,-5.299,8.625
2.256,7.97,-5.299,8.627
2.256,7.97,-5.299,8.628
2.256,7.97,-5.299,8.63
2.256,7.97,-5.299,8.632
2.256,7.97,-5.299,8.724
2.256,7.97,-5.299,8.726
2.296,8.126,-5.362,8.727
2.232,8.109,-5.287,8.729
2.256,7.97,-5.299,8.735
2.338,8.119,-5.194,8.824
2.274,8.102,-5.119,8.826
2.468,7.991,-5.113,8.837
2.533,7.927,-5.072,8.849
2.638,8.019,-5.094,8.85
2.759,8.325,-5.052,8.925
2.63,8.372,-5.018,8.926
2.615,8.077,-4.967,8.928
2.727,7.817,-5.065,8.933
2.751,7.678,-5.077,8.935
1.747,8.173,-4.951,9.028
1.749,8.124,-5.084,9.03
1.702,8.051,-5.133,9.032
1.773,8.037,-4.976,9.034
1.867,8.184,-4.878,9.035
1.776,7.988,-5.108,9.123
1.892,8.296,-5.069,9.125
1.867,8.384,-5.178,9.127
1.767,8.384,-4.878,9.133
1.729,7.914,-5.157,9.223
1.822,8.061,-5.059,9.225
1.965,8.233,-5.045,9.245
1.996,7.998,-5.335,9.246
2.096,7.798,-5.335,9.248
2.143,7.871,-5.286,9.327
2.408,8.004,-5.331,9.329
2.261,8.131,-5.38,9.33
2.7,8.0,-5.4,9.332
2.516,7.408,-5.561,9.334
2.927,7.463,-5.424,9.424
3.235,7.967,-5.455,9.425
3.386,7.743,-5.671,9.427
3.455,7.778,-5.382,9.429
4.22,8.41,-5.227,9.43
3.708,8.804,-5.531,9.527
3.708,8.604,-5.231,9.529
2.99,7.845,-5.037,9.531
2.363,7.482,-4.912,9.533
2.202,8.351,-4.633,9.536
2.029,8.614,-4.657,9.624
1.649,8.124,-4.784,9.636
1.294,8.447,-3.702,9.638
1.508,8.604,-3.531,9.64
1.894,8.747,-3.502,9.642
3.495,8.69,-2.848,9.724
3.115,8.29,-2.688,9.725
3.409,8.557,-2.574,9.727
3.561,9.762,-2.45,9.733
3.241,9.962,-2.71,9.735
4.245,9.476,-2.835,9.824
3.491,9.613,-2.789,9.825
3.2,9.4,-2.8,9.827
2.827,9.602,-3.213,9.829
4.791,11.273,-2.909,9.83
6.355,13.519,-2.587,9.923
1.943,14.405,-5.308,9.925
0.66,12.408,-4.551,9.926
0.815,9.327,-3.938,9.928
1.406,8.126,-3.516,9.93
1.106,8.526,-3.616,10.024
1.145,9.081,-3.513,10.025
1.241,8.73,-3.602,10.027
1.61,9.039,-3.074,10.029
0.959,9.77,-2.498,10.03
1.636,9.82,-2.152,10.099
1.424,9.58,-1.768,10.1
1.468,9.96,-1.376,10.102
0.8,9.9,-1.6,10.104
1.012,9.94,-1.484,10.105
1.154,9.698,0.414,10.222
1.146,9.402,0.186,10.224
1.172,9.591,0.07,10.226
0.775,9.73,-0.139,10.227
1.4,9.1,0.0,10.325
1.405,8.784,-0.004,10.327
1.747,9.008,0.202,10.328
1.551,9.038,0.06,10.33
1.869,8.82,0.205,10.332
1.718,8.782,0.545,10.351
1.452,8.715,0.479,10.424
1.445,8.555,0.664,10.426
1.387,8.302,0.551,10.428
1.514,8.275,0.369,10.429
1.618,8.182,0.345,10.431
1.676,8.058,0.239,10.527
1.699,8.123,0.081,10.529
1.682,8.218,0.055,10.53
1.682,8.218,0.055,10.532
1.503,8.53,0.158,10.534
0.689,8.798,1.392,10.624
0.453,9.175,1.502,10.625
0.398,9.583,1.532,10.627
0.275,9.879,1.617,10.629
0.23,10.072,1.587,10.63
0.104,10.034,1.536,10.724
0.149,9.842,1.566,10.725
0.045,9.708,1.53,10.727
0.123,9.604,1.415,10.738
-0.013,9.781,1.425,10.74
-0.013,9.781,1.425,10.823
0.009,9.685,1.44,10.824
-0.013,9.381,1.525,10.826
-0.049,9.358,1.434,10.828
0.71,9.165,2.116,10.924
0.792,9.272,2.076,10.925
0.899,9.182,2.054,10.927
1.225,9.12,2.063,10.928
1.449,8.841,2.027,10.93
2.623,8.318,2.89,11.023
2.893,8.599,2.412,11.025
3.262,8.866,2.108,11.026
3.067,9.138,2.242,11.028
3.001,9.314,4.027,11.03
2.731,9.033,4.504,11.123
2.587,8.612,4.552,11.125
2.463,8.58,4.735,11.126
2.456,8.679,4.747,11.138
2.431,8.733,4.304,11.151
2.738,9.0,3.192,11.223
2.754,9.1,2.969,11.225
2.731,9.2,2.654,11.226
2.677,9.1,2.785,11.228
2.662,9.0,3.008,11.233
2.554,9.0,3.269,11.323
2.538,9.0,3.492,11.329
2.485,9.0,3.623,11.331
2.577,9.0,3.585,11.332
2.631,9.0,3.454,11.334
2.554,9.0,3.269,11.423
2.608,9.0,3.138,11.425
2.608,9.0,3.138,11.427
2.608,9.0,3.138,11.429
2.477,9.1,3.085,11.431
2.477,9.1,3.085,11.523
2.569,9.0,3.046,11.525
2.715,9.1,2.877,11.536
2.862,9.1,2.708,11.539
2.862,9.1,2.708,11.548
2.9,9.1,2.8,11.628
2.938,9.1,2.892,11.63
3.215,9.1,2.777,11.631
3.715,9.1,2.677,11.633
3.754,9.1,2.769,11.635
3.777,9.1,3.085,11.723
3.746,9.0,3.531,11.725
3.492,8.9,3.962,11.726
3.346,9.1,4.131,11.728
3.569,9.2,4.146,11.73
4.077,9.1,4.585,11.823
4.5,9.3,4.3,11.825
4.4,9.5,3.8,11.827
4.269,9.5,3.746,11.828
4.077,9.5,4.585,11.83
2.738,10.24,4.718,11.923
3.539,10.458,4.965,11.935
3.704,10.673,4.885,11.937
3.658,10.787,5.097,11.94
3.594,10.79,5.223,11.942
2.473,11.018,4.327,12.023
2.764,10.891,3.736,12.025
3.002,10.962,3.365,12.033
3.422,10.678,3.311,12.035
3.821,10.497,3.479,12.036
2.047,11.349,-0.027,12.123
2.084,10.961,-0.608,12.125
2.386,10.529,-1.057,12.126
2.914,10.371,-2.243,12.13
3.182,10.794,-2.559,12.137
0.62,9.787,-5.474,12.223
0.303,8.755,-5.853,12.225
0.307,7.729,-6.491,12.226
0.838,7.619,-5.794,12.234
0.883,6.668,-6.38,12.235
-2.057,3.864,-7.985,12.323
-1.445,3.811,-8.168,12.325
-1.24,3.685,-8.209,12.327
-0.949,2.662,-8.474,12.336
-0.385,1.696,-8.277,12.337
-1.338,-0.8,-8.024,12.422
-0.808,-1.1,-8.121,12.424
-0.239,-0.4,-8.414,12.426
-0.552,-0.3,-8.375,12.427
-0.351,-0.445,-8.545,12.528
-0.324,-2.082,-9.082,12.529
0.402,-1.61,-8.01,12.531
0.696,-3.58,-7.48,12.533
2.063,-3.814,-7.314,12.534
0.44,-4.991,-6.585,12.647
0.54,-5.791,-5.685,12.673
1.628,-5.108,-6.432,12.675
1.03,-5.155,-5.808,12.677
1.313,-4.93,-6.528,12.678
2.4,-4.9,-6.8,12.798
3.08,-5.423,-6.866,12.799
3.27,-5.184,-6.949,12.801
3.223,-5.715,-7.021,12.802
3.077,-4.985,-7.179,12.804
2.986,-5.411,-7.168,12.852
3.064,-5.095,-7.047,12.854
3.218,-5.452,-6.877,12.855
3.257,-5.295,-6.816,12.857
3.434,-5.079,-6.995,12.859
3.4,-4.8,-7.1,12.921
2.983,-4.735,-7.061,12.922
3.374,-5.252,-7.391,12.926
3.73,-5.239,-7.443,12.928
3.757,-5.587,-7.352,13.024
3.743,-5.213,-7.348,13.026
3.535,-5.33,-7.078,13.028
3.604,-5.091,-6.735,13.029
3.913,-4.974,-6.704,13.031
4.017,-5.265,-6.639,13.049
4.022,-5.557,-6.874,13.123
3.852,-5.396,-7.417,13.125
3.504,-5.191,-7.635,13.127
3.196,-4.909,-7.565,13.128
3.396,-5.009,-7.565,13.13
3.517,-5.165,-7.539,13.223
3.73,-5.639,-7.543,13.224
3.652,-5.696,-7.517,13.226
3.709,-5.483,-7.27,13.228
3.6,-5.3,-7.2,13.229
3.678,-5.243,-7.226,13.322
3.561,-4.978,-7.387,13.324
3.591,-5.217,-7.43,13.325
3.657,-5.187,-7.552,13.327
3.53,-5.139,-7.443,13.328
3.526,-5.248,-7.309,13.423
3.67,-5.161,-7.457,13.425
3.561,-5.378,-7.487,13.426
3.613,-5.374,-7.704,13.438
3.643,-5.213,-7.648,13.449
3.517,-5.165,-7.539,13.538
3.604,-5.191,-7.335,13.54
3.526,-5.248,-7.309,13.542
3.526,-5.248,-7.309,13.547
3.435,-5.33,-7.378,13.549
