vertical_Accel_x,vertical_Accel_y,vertical_Accel_z,accel_time_list
1.665,-5.527,-7.098,0.0
1.479,-6.287,-7.315,0.001
1.982,-5.419,-7.378,0.003
1.579,-5.687,-7.615,0.005
1.268,-6.159,-7.861,0.006
1.625,-5.389,-7.27,0.108
1.361,-6.05,-7.214,0.11
1.659,-5.718,-7.25,0.111
1.849,-5.934,-7.118,0.211
1.734,-6.429,-7.081,0.213
1.576,-6.055,-7.151,0.215
0.601,-6.044,-7.321,0.216
0.185,-5.895,-7.162,0.218
0.277,-6.099,-7.172,0.22
0.149,-5.994,-7.196,0.309
-0.268,-5.592,-7.128,0.311
-0.485,-5.291,-6.86,0.313
-0.464,-5.215,-6.443,0.314
-0.674,-5.058,-6.006,0.316
-0.825,-4.553,-5.802,0.389
-0.877,-4.336,-5.791,0.391
-0.834,-3.696,-6.364,0.392
-1.189,-3.368,-7.245,0.394
-1.611,-2.932,-7.855,0.396
-0.378,-2.822,-8.211,0.508
-0.819,-3.581,-8.307,0.51
-1.744,-3.356,-9.278,0.511
-2.674,-1.526,-10.83,0.513
-1.256,2.801,-11.847,0.615
-0.612,3.702,-11.694,0.617
0.0,1.4,-11.5,0.618
-0.456,-0.699,-10.947,0.62
-0.745,-1.032,-10.06,0.622
-1.048,4.691,-8.326,0.623
1.662,6.986,-6.472,0.711
2.702,6.322,-6.844,0.712
2.66,5.764,-7.929,0.714
2.18,6.082,-8.064,0.716
1.574,6.317,-7.434,0.74
4.393,8.079,-3.806,0.809
4.406,9.132,-2.98,0.811
4.237,10.292,-2.082,0.812
4.005,10.643,-1.667,0.814
3.832,10.448,-1.815,0.816
4.109,10.198,-2.821,0.909
3.904,9.855,-4.354,0.911
2.944,9.412,-4.876,0.913
2.596,8.828,-4.011,0.914
2.226,9.002,-3.121,0.916
2.557,9.575,-3.23,1.009
2.634,9.145,-3.698,1.01
2.555,8.94,-3.736,1.017
3.491,8.398,-3.749,1.019
3.229,8.257,-3.714,1.02
2.709,8.102,-3.951,1.109
2.608,7.977,-4.069,1.111
2.608,7.877,-4.469,1.112
2.276,8.144,-5.311,1.131
1.652,8.688,-5.522,1.133
1.437,7.502,-6.225,1.209
1.311,7.706,-6.076,1.211
1.384,7.911,-6.426,1.212
1.621,7.933,-6.792,1.214
1.674,7.944,-7.031,1.216
0.957,9.129,-5.486,1.317
0.841,9.063,-5.533,1.319
0.716,9.065,-5.653,1.32
0.678,8.71,-5.702,1.322
0.578,8.51,-5.602,1.324
0.435,8.439,-5.788,1.409
0.22,8.382,-5.816,1.411
0.22,8.382,-5.816,1.413
0.122,8.39,-5.798,1.414
0.014,8.257,-5.771,1.416
0.031,8.122,-5.624,1.509
0.131,8.322,-5.724,1.511
0.096,8.384,-5.937,1.521
0.167,8.369,-6.094,1.527
0.324,7.998,-6.18,1.529
0.058,8.25,-5.243,1.609
0.153,7.78,-5.506,1.611
-0.006,7.335,-5.376,1.612
-0.198,7.388,-5.275,1.614
-0.067,7.302,-5.871,1.615
-0.089,6.836,-6.261,1.711
-0.183,6.895,-6.173,1.713
-0.182,6.689,-6.26,1.715
0.028,6.831,-6.134,1.716
0.19,6.658,-6.526,1.718
0.35,6.697,-6.044,1.811
0.22,6.778,-6.235,1.813
0.078,6.934,-6.49,1.815
0.074,6.457,-6.741,1.816
0.056,6.262,-6.968,1.818
-0.167,6.402,-7.071,1.908
-0.395,6.271,-7.337,1.93
-0.502,6.612,-7.225,1.933
-0.639,6.833,-7.405,1.935
-0.632,6.692,-7.417,2.008
-0.797,6.183,-7.362,2.01
-1.075,5.949,-7.272,2.012
-1.372,5.931,-7.234,2.013
-1.417,6.505,-7.327,2.015
-0.2,7.22,-7.04,2.111
-0.2,6.88,-7.16,2.115
-0.2,6.56,-6.92,2.117
-0.3,6.16,-6.62,2.119
-0.8,6.4,-6.3,2.121
0.328,6.369,-6.766,2.209
0.724,6.346,-6.716,2.21
1.124,5.846,-6.916,2.212
1.104,5.423,-6.95,2.214
0.85,5.397,-7.344,2.219
0.413,6.076,-7.564,2.309
-0.012,6.83,-7.849,2.319
-0.315,6.913,-7.811,2.32
-0.567,7.098,-7.329,2.322
-0.499,7.006,-7.113,2.331
-0.833,7.898,-6.673,2.413
-0.395,8.284,-6.955,2.415
-0.345,8.536,-6.745,2.416
-0.602,8.105,-6.882,2.418
-0.525,7.276,-7.045,2.42
1.086,7.334,-6.332,2.509
1.891,7.236,-6.864,2.511
2.446,6.959,-7.608,2.513
2.139,6.176,-8.324,2.514
0.588,6.915,-7.085,2.516
-1.166,8.475,-4.378,2.609
-0.759,7.927,-3.949,2.616
-0.147,8.222,-3.78,2.617
-0.039,8.59,-3.574,2.619
0.194,8.448,-3.929,2.621
-0.363,8.963,-3.673,2.708
-0.276,9.276,-4.135,2.71
-0.345,8.745,-4.249,2.711
-1.022,8.322,-3.884,2.713
-1.027,8.027,-3.825,2.715
0.658,8.513,-3.497,2.81
0.818,8.789,-3.586,2.811
0.368,8.748,-3.513,2.813
0.06,8.576,-3.589,2.815
0.344,8.551,-3.496,2.817
0.391,8.946,-3.53,2.909
0.984,9.374,-3.606,2.91
1.432,9.652,-3.287,2.912
-0.126,9.939,-3.29,2.914
-0.055,9.732,-3.242,2.915
0.106,9.49,-3.477,3.009
0.635,9.397,-3.826,3.01
0.796,9.673,-3.915,3.012
-0.147,11.104,-3.866,3.018
-0.224,9.402,-3.783,3.028
-0.062,9.16,-4.018,3.109
-1.862,9.56,-4.218,3.11
-0.845,9.268,-3.858,3.112
-0.361,8.542,-4.565,3.114
-0.226,8.339,-4.39,3.115
1.781,7.551,-5.432,3.209
2.198,7.728,-5.826,3.21
0.779,7.778,-4.358,3.212
0.082,8.587,-3.969,3.214
1.479,7.878,-5.858,3.222
1.52,7.686,-6.105,3.31
0.586,8.095,-5.08,3.312
0.101,8.536,-4.937,3.32
0.336,7.963,-5.099,3.322
0.036,7.963,-4.299,3.323
-0.152,7.712,-6.585,3.409
-0.188,7.503,-6.121,3.41
-1.089,8.278,-5.778,3.412
-1.066,7.959,-6.977,3.421
-0.525,7.669,-6.914,3.423
0.096,7.699,-6.226,3.508
1.066,8.041,-5.823,3.51
1.515,7.679,-5.952,3.515
1.102,7.251,-5.487,3.517
0.327,7.582,-4.773,3.608
0.182,7.645,-5.618,3.616
-0.667,8.233,-6.433,3.617
-0.968,8.708,-5.79,3.619
0.493,9.023,-6.396,3.621
1.059,8.965,-6.119,3.71
1.011,9.278,-5.378,3.712
0.877,9.419,-5.001,3.714
1.207,8.577,-5.204,3.716
1.021,8.53,-5.412,3.717
-0.34,8.8,-4.88,3.808
-0.0,8.4,-5.0,3.81
0.325,8.455,-5.176,3.812
0.587,8.773,-5.162,3.826
0.649,8.591,-5.047,3.827
0.059,9.205,-3.889,3.908
-0.127,9.278,-3.788,3.91
-0.334,8.692,-4.238,3.912
0.191,8.689,-3.965,3.913
1.192,9.301,-3.758,3.915
0.328,9.634,-3.705,4.012
-0.488,8.948,-4.013,4.014
0.621,9.347,-3.356,4.015
1.024,9.385,-3.434,4.017
0.235,8.921,-3.755,4.019
1.274,9.391,-2.78,4.108
1.41,9.124,-3.228,4.11
1.121,9.247,-3.256,4.112
1.084,9.502,-2.815,4.113
1.497,9.463,-2.622,4.115
1.458,9.742,-1.247,4.209
1.353,9.667,-0.856,4.21
1.484,9.676,-1.125,4.22
2.442,9.578,0.007,4.221
1.611,9.689,-1.063,4.223
1.037,9.937,-1.015,4.313
0.904,9.604,-1.281,4.314
1.404,9.604,-1.381,4.316
2.096,9.496,-1.519,4.318
1.856,9.356,-1.822,4.319
1.596,9.296,-1.919,4.409
2.178,9.478,-1.311,4.415
2.159,9.559,-1.104,4.417
1.93,9.63,-1.152,4.419
2.174,9.374,-1.03,4.42
2.415,9.315,-1.226,4.51
3.119,9.619,-0.607,4.512
3.181,9.481,-0.693,4.515
2.719,9.319,-1.007,4.517
2.515,9.215,-1.226,4.519
2.686,9.225,-0.769,4.609
2.837,9.44,-0.09,4.621
2.658,9.376,-0.206,4.623
2.571,9.374,-0.157,4.633
3.208,9.414,-0.046,4.635
3.173,9.127,0.082,4.708
3.248,9.385,-0.179,4.713
3.376,9.258,0.039,4.715
3.149,9.162,-0.16,4.717
3.677,9.234,-0.241,4.718
2.56,9.356,-0.949,4.808
2.846,9.302,-0.714,4.81
2.884,9.326,-1.011,4.814
3.349,8.94,-1.623,4.816
3.853,9.179,-1.032,4.817
1.754,9.637,-1.071,4.908
1.304,9.555,-1.052,4.91
0.852,9.61,-0.995,4.912
1.869,9.794,-0.843,4.913
1.886,9.343,-1.329,4.915
1.324,9.508,-0.788,5.009
1.184,9.361,-1.008,5.019
1.802,9.767,-0.449,5.021
3.74,9.379,0.157,5.025
3.785,9.12,-0.161,5.027
3.669,9.047,-0.307,5.108
3.407,9.14,-0.42,5.11
3.459,9.029,-0.542,5.111
2.414,9.471,-0.643,5.113
2.2,9.3,-0.8,5.119
2.394,9.398,-0.853,5.209
2.514,9.471,-0.843,5.211
2.32,9.373,-0.79,5.213
2.204,9.335,-1.098,5.221
2.461,9.52,-0.569,5.308
2.724,9.608,-0.388,5.31
2.467,9.422,-0.916,5.311
2.349,9.516,-1.176,5.313
2.276,9.492,-1.112,5.315
2.373,9.324,-1.063,5.408
2.276,9.492,-1.112,5.41
2.253,9.251,-1.073,5.411
2.398,9.433,-1.151,5.413
2.369,9.59,-0.965,5.415
2.449,9.216,-1.176,5.508
2.473,9.324,-1.263,5.51
2.351,9.384,-1.224,5.511
2.398,9.433,-1.151,5.513
2.592,9.531,-1.204,5.52
2.351,9.384,-1.224,5.608
2.329,9.143,-1.186,5.61
2.492,9.231,-0.804,5.612
2.594,9.398,-1.253,5.613
2.62,9.373,-1.39,5.615
2.939,9.28,-1.531,5.708
3.102,9.367,-1.149,5.71
3.245,9.382,-0.978,5.715
3.212,9.004,-1.794,5.717
2.647,9.049,-1.327,5.727
2.661,9.52,-0.969,5.809
3.255,9.618,-1.822,5.811
2.796,9.265,-1.702,5.812
2.804,9.535,-0.798,5.818
2.955,9.918,-1.422,5.819
1.872,9.927,-0.634,5.908
1.773,8.799,-1.395,5.91
2.994,8.768,-1.639,5.911
4.308,10.704,1.078,5.913
2.843,9.582,-2.209,5.915
3.069,10.011,-1.954,6.007
2.917,10.653,-0.663,6.009
3.223,10.613,-3.065,6.011
-0.109,9.924,-3.818,6.012
0.288,9.716,-1.42,6.014
3.819,10.728,3.244,6.108
5.24,11.236,7.578,6.11
5.018,9.289,4.999,6.116
5.745,8.033,2.903,6.13
5.407,7.916,2.16,6.133
3.9,8.8,2.2,6.208
4.496,8.872,1.56,6.209
4.84,8.88,2.1,6.211
4.952,8.964,2.62,6.213
5.0,9.0,1.7,6.214
3.436,9.254,-1.811,6.309
3.649,8.806,-2.315,6.312
3.394,8.022,-2.36,6.313
4.493,8.926,-0.736,6.315
3.921,8.514,-2.337,6.317
3.028,9.204,-2.24,6.383
3.384,9.012,-1.82,6.384
3.368,8.324,-1.74,6.386
3.392,8.356,-1.46,6.388
3.348,7.964,-1.84,6.389
2.0,7.1,-4.4,6.505
1.581,6.843,-5.113,6.507
1.479,6.236,-5.381,6.517
1.983,6.349,-5.045,6.609
2.196,6.687,-4.436,6.61
1.891,6.074,-5.172,6.612
1.632,5.496,-5.779,6.614
1.281,6.343,-7.113,6.615
1.413,8.738,-6.091,6.621
1.096,6.764,-8.034,6.708
1.009,5.64,-7.815,6.714
0.606,4.604,-7.449,6.716
0.325,3.183,-6.179,6.718
0.164,2.309,-5.523,6.719
0.196,2.064,-5.034,6.721
-0.417,1.589,-5.253,6.807
-0.787,4.175,-6.181,6.808
0.043,6.862,-14.709,6.81
1.164,6.609,-18.123,6.817
-0.668,4.226,-15.194,6.907
0.955,2.954,-10.799,6.909
0.283,2.159,-8.076,6.918
0.32,2.562,-6.642,6.92
0.288,4.836,-6.548,6.922
1.734,6.623,-7.594,7.008
2.009,7.04,-8.815,7.009
1.609,6.34,-8.915,7.015
1.306,5.104,-8.349,7.016
1.104,4.536,-7.966,7.018
1.085,4.757,-7.936,7.107
1.209,5.44,-8.215,7.109
1.398,5.832,-8.317,7.111
1.43,5.687,-8.228,7.112
1.349,5.566,-8.058,7.114
1.219,5.279,-8.03,7.207
1.242,5.294,-8.126,7.21
1.226,5.751,-8.162,7.211
1.204,5.736,-8.066,7.213
1.349,5.566,-8.058,7.214
1.291,5.46,-7.985,7.307
1.313,5.475,-8.081,7.317
1.313,5.475,-8.081,7.318
1.421,5.747,-8.013,7.32
1.385,5.657,-8.036,7.322
1.362,5.642,-7.94,7.407
1.326,5.551,-7.962,7.409
1.272,5.681,-7.955,7.41
1.258,5.606,-8.074,7.412
1.362,5.642,-7.94,7.414
1.308,5.772,-7.932,7.507
1.272,5.681,-7.955,7.509
1.308,5.772,-7.932,7.51
1.272,5.681,-7.955,7.512
1.236,5.591,-7.977,7.514
1.168,5.645,-8.089,7.607
1.109,5.54,-8.015,7.609
1.145,5.63,-7.992,7.61
1.181,5.721,-7.97,7.612
1.272,5.681,-7.955,7.614
1.272,5.681,-7.955,7.707
1.357,5.938,-7.791,7.709
1.285,5.757,-7.836,7.711
1.33,5.787,-8.028,7.712
1.294,5.696,-8.051,7.717
1.33,5.787,-8.028,7.808
1.434,5.823,-7.894,7.815
1.149,5.766,-7.658,7.817
1.113,5.675,-7.681,7.818
1.123,5.615,-7.896,7.82
1.068,5.745,-7.889,7.907
1.204,5.736,-8.066,7.927
1.294,5.696,-8.051,7.93
1.308,5.772,-7.932,7.932
1.308,5.772,-7.932,7.934
1.308,5.772,-7.932,8.007
1.285,5.757,-7.836,8.009
1.158,5.706,-7.874,8.01
1.272,5.681,-7.955,8.012
1.217,5.811,-7.947,8.022
1.308,5.772,-7.932,8.108
1.249,5.666,-7.858,8.109
1.249,5.666,-7.858,8.112
1.217,5.811,-7.947,8.114
1.272,5.681,-7.955,8.116
1.217,5.811,-7.947,8.207
1.194,5.796,-7.851,8.209
1.158,5.706,-7.874,8.21
1.158,5.706,-7.874,8.215
1.158,5.706,-7.874,8.217
1.217,5.811,-7.947,8.307
1.181,5.721,-7.97,8.309
1.308,5.772,-7.932,8.311
1.285,5.757,-7.836,8.312
1.285,5.757,-7.836,8.314
1.308,5.772,-7.932,8.408
1.272,5.681,-7.955,8.409
1.217,5.811,-7.947,8.411
1.308,5.772,-7.932,8.432
1.321,5.847,-7.813,8.435
1.285,5.757,-7.836,8.507
1.249,5.666,-7.858,8.508
1.217,5.811,-7.947,8.514
1.308,5.772,-7.932,8.515
1.253,5.902,-7.925,8.607
1.308,5.772,-7.932,8.609
1.194,5.796,-7.851,8.614
1.285,5.757,-7.836,8.616
1.285,5.757,-7.836,8.617
1.285,5.757,-7.836,8.707
1.321,5.847,-7.813,8.709
1.321,5.847,-7.813,8.711
1.308,5.772,-7.932,8.716
1.285,5.757,-7.836,8.718
1.285,5.757,-7.836,8.808
1.285,5.757,-7.836,8.81
1.343,5.862,-7.909,8.812
1.343,5.862,-7.909,8.83
1.321,5.847,-7.813,8.832
1.285,5.757,-7.836,8.917
1.285,5.757,-7.836,8.918
1.308,5.772,-7.932,8.92
1.308,5.772,-7.932,8.922
1.321,5.847,-7.813,8.923
1.308,5.772,-7.932,9.007
1.285,5.757,-7.836,9.009
1.285,5.757,-7.836,9.015
1.343,5.862,-7.909,9.017
1.321,5.847,-7.813,9.018
1.308,5.772,-7.932,9.109
1.285,5.757,-7.836,9.111
1.321,5.847,-7.813,9.113
1.321,5.847,-7.813,9.115
1.308,5.772,-7.932,9.117
1.308,5.772,-7.932,9.207
1.308,5.772,-7.932,9.209
1.321,5.847,-7.813,9.218
1.321,5.847,-7.813,9.22
1.321,5.847,-7.813,9.223
1.308,5.772,-7.932,9.306
1.285,5.757,-7.836,9.309
1.285,5.757,-7.836,9.311
1.321,5.847,-7.813,9.313
1.321,5.847,-7.813,9.315
1.308,5.772,-7.932,9.407
1.308,5.772,-7.932,9.409
1.272,5.681,-7.955,9.41
1.308,5.772,-7.932,9.412
1.321,5.847,-7.813,9.414
1.321,5.847,-7.813,9.507
1.321,5.847,-7.813,9.509
1.285,5.757,-7.836,9.511
1.272,5.681,-7.955,9.512
1.308,5.772,-7.932,9.514
1.343,5.862,-7.909,9.608
1.321,5.847,-7.813,9.625
1.343,5.862,-7.909,9.627
1.308,5.772,-7.932,9.628
1.308,5.772,-7.932,9.63
1.285,5.757,-7.836,9.708
1.321,5.847,-7.813,9.71
1.285,5.757,-7.836,9.713
1.321,5.847,-7.813,9.715
1.285,5.757,-7.836,9.716
1.308,5.772,-7.932,9.807
1.308,5.772,-7.932,9.809
1.285,5.757,-7.836,9.811
1.321,5.847,-7.813,9.812
1.321,5.847,-7.813,9.814
1.285,5.757,-7.836,9.907
1.308,5.772,-7.932,9.908
1.308,5.772,-7.932,9.91
1.308,5.772,-7.932,9.911
1.321,5.847,-7.813,9.913
1.285,5.757,-7.836,10.006
1.285,5.757,-7.836,10.008
1.308,5.772,-7.932,10.01
1.321,5.847,-7.813,10.011
1.321,5.847,-7.813,10.013
1.321,5.847,-7.813,10.106
1.321,5.847,-7.813,10.113
1.343,5.862,-7.909,10.115
1.308,5.772,-7.932,10.117
1.285,5.757,-7.836,10.206
1.285,5.757,-7.836,10.208
1.321,5.847,-7.813,10.21
1.285,5.757,-7.836,10.211
1.285,5.757,-7.836,10.217
1.357,5.938,-7.791,10.307
1.321,5.847,-7.813,10.313
1.285,5.757,-7.836,10.315
1.285,5.757,-7.836,10.317
1.343,5.862,-7.909,10.318
1.321,5.847,-7.813,10.406
1.321,5.847,-7.813,10.408
1.285,5.757,-7.836,10.414
1.308,5.772,-7.932,10.416
1.308,5.772,-7.932,10.418
1.321,5.847,-7.813,10.508
1.321,5.847,-7.813,10.509
1.321,5.847,-7.813,10.511
1.285,5.757,-7.836,10.513
1.308,5.772,-7.932,10.514
1.285,5.757,-7.836,10.606
1.321,5.847,-7.813,10.608
1.321,5.847,-7.813,10.61
1.285,5.757,-7.836,10.611
1.308,5.772,-7.932,10.613
1.285,5.757,-7.836,10.708
1.285,5.757,-7.836,10.71
1.321,5.847,-7.813,10.711
1.357,5.938,-7.791,10.713
1.321,5.847,-7.813,10.731
1.285,5.757,-7.836,10.806
1.272,5.681,-7.955,10.808
1.272,5.681,-7.955,10.81
1.272,5.681,-7.955,10.811
1.285,5.757,-7.836,10.813
1.321,5.847,-7.813,10.906
1.411,5.808,-7.798,10.907
1.321,5.847,-7.813,10.909
1.321,5.847,-7.813,10.911
1.285,5.757,-7.836,10.912
1.285,5.757,-7.836,11.007
1.272,5.681,-7.955,11.009
1.308,5.772,-7.932,11.012
1.343,5.862,-7.909,11.014
1.321,5.847,-7.813,11.015
1.321,5.847,-7.813,11.112
1.321,5.847,-7.813,11.114
1.285,5.757,-7.836,11.116
1.285,5.757,-7.836,11.128
1.308,5.772,-7.932,11.129
1.308,5.772,-7.932,11.207
1.308,5.772,-7.932,11.208
1.285,5.757,-7.836,11.21
1.285,5.757,-7.836,11.212
1.285,5.757,-7.836,11.213
1.285,5.757,-7.836,11.307
1.357,5.938,-7.791,11.309
1.321,5.847,-7.813,11.31
1.285,5.757,-7.836,11.312
1.285,5.757,-7.836,11.314
1.308,5.772,-7.932,11.406
1.308,5.772,-7.932,11.408
1.321,5.847,-7.813,11.41
1.285,5.757,-7.836,11.411
1.321,5.847,-7.813,11.413
1.308,5.772,-7.932,11.506
1.285,5.757,-7.836,11.512
1.343,5.862,-7.909,11.524
1.308,5.772,-7.932,11.526
1.285,5.757,-7.836,11.528
1.285,5.757,-7.836,11.606
1.285,5.757,-7.836,11.611
1.285,5.757,-7.836,11.613
1.321,5.847,-7.813,11.614
1.321,5.847,-7.813,11.616
1.317,5.711,-8.147,11.707
1.019,5.679,-8.43,11.709
0.955,5.87,-8.208,11.711
1.402,5.968,-7.983,11.716
1.415,6.143,-8.264,11.807
1.208,6.072,-8.532,11.813
1.226,5.851,-8.562,11.814
0.792,5.728,-8.268,11.816
0.596,5.064,-8.834,11.818
0.521,4.647,-8.813,11.906
0.745,3.83,-8.992,11.908
-0.058,4.794,-8.926,11.923
-0.009,2.46,-9.385,11.924
0.051,3.034,-8.242,11.926
0.132,4.055,-6.711,12.006
0.794,4.596,-5.951,12.008
0.723,4.515,-6.396,12.01
0.719,4.379,-6.73,12.011
0.957,3.638,-6.791,12.013
1.962,6.785,-3.226,12.106
3.311,8.032,-1.86,12.108
3.953,8.86,-2.298,12.11
3.564,8.891,-2.557,12.111
4.27,7.383,-2.815,12.113
5.449,5.918,-0.531,12.206
4.814,5.743,0.229,12.208
5.618,6.869,1.451,12.209
5.729,7.586,2.657,12.215
5.361,7.798,3.137,12.217
6.675,6.037,3.698,12.306
7.129,6.474,4.936,12.315
6.861,6.853,5.288,12.317
7.099,6.947,5.992,12.319
6.247,7.368,6.479,12.32
4.606,6.724,7.8,12.406
5.573,7.19,8.233,12.408
5.031,7.025,7.033,12.409
6.243,5.473,9.233,12.411
4.265,6.401,10.076,12.413
7.155,3.824,10.468,12.506
6.368,3.962,7.764,12.508
6.1,7.4,7.2,12.509
6.862,8.59,6.081,12.515
4.495,7.824,0.348,12.517
2.713,6.604,3.974,12.605
3.443,5.648,6.313,12.607
4.448,5.783,4.404,12.609
3.874,7.191,5.852,12.61
2.091,8.33,6.917,12.612
0.495,9.128,4.866,12.708
0.813,8.788,5.348,12.711
2.369,8.567,5.596,12.712
2.759,8.123,4.528,12.714
2.419,8.76,4.082,12.716
1.592,9.0,2.262,12.81
0.831,9.3,3.554,12.811
-0.254,9.5,3.031,12.813
0.292,9.7,3.562,12.815
0.115,9.6,2.877,12.816
1.032,9.252,3.787,12.906
1.422,9.034,3.425,12.907
0.953,9.104,3.266,12.909
0.838,9.46,2.818,12.911
1.415,9.244,3.347,12.917
1.015,9.344,2.747,13.006
0.596,9.573,3.015,13.008
0.702,9.663,2.992,13.01
1.202,9.563,2.292,13.011
0.972,9.775,2.498,13.021
-0.046,9.841,1.695,13.106
-0.088,10.117,2.029,13.107
0.007,9.772,1.279,13.109
-0.153,9.968,1.515,13.114
-0.349,10.314,1.265,13.116
-1.3,10.4,0.4,13.206
-1.4,10.6,0.2,13.207
-1.3,10.6,-0.8,13.209
0.91,10.649,-0.949,13.215
0.757,10.584,-1.284,13.217
1.882,10.838,-1.84,13.306
2.451,10.343,-1.731,13.307
2.626,9.902,-3.328,13.314
3.076,9.07,-4.546,13.316
2.146,10.124,-2.77,13.318
2.157,9.914,-4.332,13.405
2.656,9.189,-5.289,13.407
1.574,9.543,-5.171,13.412
-1.613,9.772,-5.835,13.424
-1.149,5.903,-8.656,13.506
0.276,5.551,-9.928,13.508
0.695,6.791,-9.313,13.509
1.056,6.312,-9.343,13.511
0.904,7.307,-9.05,13.513
-1.435,8.996,-7.491,13.606
-0.57,7.091,-7.783,13.609
0.174,6.622,-8.443,13.61
0.883,6.348,-8.496,13.612
1.326,6.278,-7.857,13.614
0.307,7.373,-6.622,13.706
0.607,7.373,-6.522,13.707
0.376,7.164,-6.729,13.709
-1.6,8.531,-4.746,13.711
-1.8,8.554,-4.431,13.712
-0.018,9.424,-1.782,13.806
-0.188,9.618,-1.512,13.807
-0.298,9.62,-1.102,13.816
0.475,9.445,-0.675,13.826
1.253,9.229,-0.953,13.828
-1.048,9.277,-0.025,13.905
-0.119,9.289,0.192,13.907
0.536,9.64,-0.004,13.909
0.734,9.658,-0.023,13.91
0.675,9.252,0.023,13.912
0.637,8.808,-1.798,14.005
0.645,8.839,-1.703,14.007
0.57,8.641,-1.631,14.009
0.591,7.969,-1.095,14.01
0.622,7.328,-0.463,14.015
0.258,7.326,0.606,14.105
0.217,7.853,0.711,14.108
0.443,8.491,0.462,14.111
0.426,8.838,0.051,14.115
0.526,8.638,-0.049,14.117
-0.694,8.484,-0.677,14.206
-0.853,8.64,-0.693,14.207
-0.836,8.563,-0.999,14.217
-0.777,8.506,-0.884,14.218
-0.497,8.692,-0.589,14.22
0.951,8.958,0.034,14.305
0.987,9.381,0.025,14.314
0.996,9.166,-0.036,14.315
0.651,8.996,-1.394,14.317
0.694,9.023,-1.634,14.319
0.775,8.998,-1.747,14.405
0.9,9.0,-2.1,14.407
0.906,9.077,-2.466,14.409
0.875,8.998,-2.647,14.415
0.706,8.877,-2.566,14.417
1.196,8.562,-3.805,14.505
1.154,8.959,-3.908,14.507
1.215,9.194,-3.706,14.513
1.38,9.208,-3.525,14.514
1.449,9.52,-3.613,14.516
1.381,9.868,-3.799,14.606
1.476,9.87,-3.83,14.626
1.493,9.783,-3.784,14.628
1.605,9.698,-3.769,14.631
1.699,9.34,-3.826,14.633
2.299,8.64,-4.926,14.705
2.608,8.577,-5.59,14.707
2.913,8.975,-4.959,14.712
2.442,9.203,-3.497,14.714
2.392,9.223,-3.01,14.715
2.117,9.413,-2.554,14.81
1.615,9.294,-2.806,14.812
1.114,9.234,-2.732,14.814
1.035,9.086,-2.981,14.815
1.078,8.989,-3.178,14.817
2.065,8.496,-4.045,14.906
2.14,8.52,-4.2,14.907
2.165,8.796,-4.145,14.909
2.22,8.96,-3.9,14.911
2.158,9.075,-3.718,14.912
2.158,9.075,-3.718,15.005
2.06,9.08,-3.7,15.006
2.042,9.025,-3.782,15.013
2.047,8.942,-3.727,15.015
1.121,9.252,-3.348,15.105
1.138,9.165,-3.302,15.108
1.017,9.113,-3.354,15.109
1.129,9.028,-3.338,15.111
1.12,8.892,-3.375,15.113
1.198,8.981,-3.453,15.205
1.198,8.981,-3.453,15.207
1.198,8.981,-3.453,15.209
1.198,8.981,-3.453,15.21
1.198,8.981,-3.453,15.212
1.198,8.981,-3.453,15.305
1.181,9.068,-3.499,15.307
1.249,9.02,-3.613,15.308
1.267,8.933,-3.567,15.31
1.249,9.02,-3.613,15.312
1.249,9.02,-3.613,15.406
1.24,8.884,-3.649,15.408
1.284,8.846,-3.52,15.409
1.362,8.935,-3.598,15.411
1.198,8.981,-3.453,15.413
1.44,9.084,-3.349,15.506
2.313,9.375,-3.559,15.512
2.968,9.493,-4.44,15.513
2.591,9.664,-3.336,15.515
2.627,9.909,-2.891,15.517
3.274,11.251,-1.483,15.611
4.587,12.025,-2.241,15.613
4.94,11.984,-2.449,15.615
4.445,11.282,-2.718,15.616
4.885,11.406,-3.294,15.618
2.465,13.669,-3.683,15.705
2.862,13.677,-3.233,15.711
3.236,13.727,-2.542,15.713
3.062,12.477,-3.833,15.715
3.108,11.183,-3.764,15.726
0.353,6.988,-7.8,15.805
0.986,6.155,-6.967,15.807
1.151,4.996,-6.367,15.813
1.343,3.927,-6.333,15.814
1.506,3.976,-6.3,15.816
-1.257,1.3,-7.177,15.905
-0.731,0.5,-7.429,15.906
-0.483,-0.4,-7.625,15.908
-0.401,-1.4,-7.93,15.91
-0.623,-1.6,-7.957,15.911
-1.313,-4.028,-6.97,15.98
-1.117,-4.079,-6.875,15.982
-1.204,-4.851,-7.006,15.984
-1.343,-4.436,-6.915,15.985
-1.355,-3.389,-6.432,15.987
-0.553,-3.113,-6.679,16.104
0.247,-3.813,-7.979,16.106
0.67,-4.608,-8.545,16.108
0.415,-4.896,-8.277,16.122
1.362,-4.209,-7.757,16.207
1.966,-3.358,-6.751,16.209
-0.426,-3.957,-8.14,16.21
2.572,-4.032,-8.692,16.212
-0.538,-4.609,-9.957,16.217
1.398,-5.075,-9.253,16.219
2.525,-4.343,-8.481,16.35
4.154,-2.524,-7.647,16.352
2.369,-4.264,-8.78,16.354
2.087,-6.115,-9.121,16.356
0.349,-7.259,-8.984,16.357
0.873,-5.902,-8.365,16.405
-0.137,-6.199,-8.117,16.407
1.115,-6.44,-8.633,16.409
-0.748,-6.669,-8.993,16.41
1.536,-5.373,-8.906,16.412
4.115,-1.691,-8.46,16.505
2.96,-7.462,-8.342,16.507
-5.757,-9.66,-7.774,16.517
4.149,-5.194,-7.396,16.519
2.513,-5.579,-7.653,16.52
0.575,-4.953,-7.502,16.609
1.843,-5.46,-6.874,16.611
1.008,-5.645,-7.23,16.612
2.098,-5.689,-7.492,16.614
1.191,-6.643,-7.562,16.616
2.098,-5.889,-7.192,16.705
-0.15,-5.895,-7.101,16.711
0.34,-5.8,-7.12,16.712
0.114,-6.143,-6.771,16.714
0.224,-6.238,-7.052,16.806
0.201,-6.21,-7.498,16.807
-0.172,-6.376,-7.445,16.811
0.367,-5.967,-7.267,16.813
0.266,-6.457,-7.069,16.824
0.168,-6.476,-7.065,16.911
0.811,-5.614,-7.177,16.912
0.578,-6.081,-7.644,16.923
0.039,-6.49,-7.822,16.924
0.08,-6.1,-7.44,16.926
