vertical_Accel_x,vertical_Accel_y,vertical_Accel_z,accel_time_list
0.125,-9.673,8.026,0.0
0.2,-7.2,6.5,0.001
0.593,-7.859,6.467,0.02
0.244,-7.605,6.62,0.022
-0.057,-7.613,5.615,0.103
0.327,-7.556,6.336,0.104
0.312,-7.491,6.061,0.106
0.485,-7.335,6.525,0.107
0.318,-7.64,6.389,0.228
0.183,-7.251,6.416,0.229
0.221,-7.507,6.207,0.231
0.263,-7.436,6.513,0.299
0.159,-7.27,6.194,0.307
0.281,-7.268,6.407,0.308
0.379,-7.285,6.397,0.31
0.396,-7.234,6.481,0.312
0.37,-7.369,6.45,0.425
0.353,-7.421,6.366,0.427
0.387,-7.318,6.535,0.434
0.346,-7.388,6.229,0.5
0.387,-7.318,6.535,0.503
0.183,-7.251,6.416,0.508
0.435,-7.489,6.273,0.511
0.281,-7.268,6.407,0.513
0.485,-7.335,6.525,0.597
0.459,-7.47,6.494,0.599
0.502,-7.283,6.609,0.601
-0.071,-6.539,6.745,0.697
0.327,-6.756,7.036,0.7
0.321,-6.607,6.707,0.702
0.536,-6.472,6.582,0.705
-1.551,-7.029,5.676,0.823
-1.239,-8.275,3.039,0.83
-1.049,-8.743,2.749,0.831
-0.984,-8.79,3.384,0.833
-0.256,-8.539,4.651,0.924
-0.79,-7.441,5.621,0.927
-0.527,-6.96,5.614,0.929
-0.819,-6.313,4.75,0.935
-2.083,-6.899,2.665,0.937
3.313,-7.022,-6.733,1.015
3.202,-7.057,-5.028,1.021
0.0,-8.1,-2.7,1.022
-0.544,-8.461,-1.617,1.024
-0.031,-7.883,-3.05,1.122
0.247,-7.075,-4.376,1.127
0.157,-7.14,-5.181,1.14
3.928,-4.227,-7.494,1.199
6.637,-1.651,-9.867,1.206
4.89,-3.439,-8.567,1.208
4.11,-4.761,-7.733,1.21
3.541,-4.835,-7.7,1.211
3.145,-2.237,-8.49,1.297
3.667,-0.455,-9.435,1.298
4.388,1.392,-9.576,1.3
5.316,1.578,-9.633,1.397
3.173,0.249,-9.047,1.4
2.445,0.063,-8.89,1.402
1.649,0.133,-8.998,1.404
3.08,2.21,-8.327,1.497
3.28,4.31,-8.427,1.5
4.68,5.26,-6.2,1.523
4.988,7.016,-6.66,1.526
4.108,7.356,-7.06,1.597
2.72,7.04,-7.0,1.6
3.264,7.806,-6.098,1.615
2.898,8.079,-6.674,1.616
1.18,8.633,-6.288,1.698
2.814,8.657,-6.029,1.701
2.918,8.631,-6.451,1.703
2.637,8.761,-7.002,1.708
2.477,7.931,-8.592,1.797
3.162,6.985,-8.754,1.8
3.669,6.108,-8.523,1.802
3.823,5.269,-8.408,1.804
3.846,4.738,-8.915,1.896
1.91,4.324,-10.443,1.912
1.424,4.497,-10.382,1.914
2.069,5.708,-9.123,2.022
1.985,6.054,-8.662,2.023
1.908,6.223,-8.369,2.027
1.908,6.123,-7.969,2.028
1.838,6.115,-7.846,2.124
1.623,6.069,-7.808,2.125
1.738,6.015,-7.746,2.132
1.623,6.069,-7.808,2.134
1.508,6.123,-7.869,2.135
1.485,6.154,-7.962,2.137
1.346,5.838,-7.815,2.223
1.238,5.715,-8.046,2.225
1.338,5.515,-8.246,2.227
1.485,5.254,-8.262,2.232
1.027,6.078,-7.396,2.323
0.896,6.027,-7.378,2.324
1.01,5.884,-7.506,2.326
1.204,5.773,-7.522,2.422
1.427,5.678,-7.296,2.425
1.457,5.629,-7.214,2.427
1.457,5.629,-7.214,2.432
1.376,5.659,-7.165,2.522
0.51,5.123,-7.706,2.525
0.458,5.235,-7.639,2.527
0.334,5.291,-7.678,2.528
0.331,5.417,-7.743,2.622
0.276,5.656,-7.74,2.63
0.235,5.816,-7.89,2.632
0.123,5.919,-8.148,2.633
1.438,5.615,-8.346,2.722
1.462,5.585,-8.254,2.729
1.369,5.608,-8.223,2.73
1.492,5.377,-8.331,2.732
1.631,5.292,-8.177,2.797
1.569,5.408,-8.123,2.8
1.623,5.469,-8.008,2.802
1.769,5.508,-7.923,2.804
1.685,5.654,-7.962,2.898
1.738,5.415,-7.946,2.902
1.692,5.377,-7.731,2.904
1.615,5.646,-7.838,3.023
1.515,5.646,-8.138,3.025
1.608,5.523,-7.769,3.03
1.492,5.577,-7.831,3.032
1.315,5.846,-8.238,3.123
1.169,5.808,-8.323,3.125
1.208,5.523,-7.669,3.132
1.1,5.7,-7.8,3.133
1.092,5.677,-8.131,3.138
1.131,5.592,-8.277,3.222
1.108,5.523,-7.969,3.225
1.008,5.423,-7.869,3.227
1.054,5.362,-7.685,3.228
1.52,4.2,-8.36,3.321
1.628,4.362,-8.25,3.326
1.655,4.124,-8.199,3.328
1.725,3.976,-8.141,3.33
1.719,4.105,-8.324,3.397
1.751,4.143,-8.954,3.407
1.775,4.124,-8.859,3.419
1.133,3.367,-9.033,3.429
1.096,3.486,-8.914,3.496
1.078,3.475,-9.325,3.502
0.996,3.486,-9.614,3.597
1.006,3.471,-9.929,3.599
0.978,3.275,-9.825,3.601
0.998,3.143,-10.357,3.604
0.888,2.959,-10.541,3.699
0.888,2.759,-10.341,3.701
0.933,2.767,-9.833,3.703
0.08,3.331,-12.169,3.706
0.904,3.581,-10.745,3.796
1.506,3.471,-8.817,3.798
2.04,4.5,-8.22,3.804
2.398,3.91,-8.428,3.831
1.898,3.81,-8.428,3.921
1.474,3.929,-8.823,3.924
1.14,3.7,-9.52,3.926
1.118,3.01,-10.388,3.934
1.0,2.7,-10.0,3.998
-0.519,3.162,-9.245,3.999
-0.555,3.489,-8.696,4.001
-0.149,3.602,-8.281,4.008
-0.066,3.668,-8.187,4.009
0.747,4.535,-7.475,4.096
0.783,4.34,-7.228,4.097
1.226,3.932,-6.763,4.101
1.38,3.683,-6.698,4.197
1.623,3.475,-6.532,4.2
1.686,3.398,-6.359,4.202
1.423,3.675,-6.832,4.215
1.867,2.967,-7.433,4.321
2.06,3.0,-7.58,4.329
2.383,3.086,-7.749,4.331
2.458,3.71,-9.008,4.334
2.262,5.685,-8.854,4.424
2.285,6.154,-9.462,4.426
2.285,6.654,-10.162,4.427
2.377,6.431,-10.692,4.435
2.754,5.862,-9.785,4.437
2.01,5.124,-10.443,4.522
1.029,6.109,-13.053,4.523
1.633,4.658,-11.15,4.527
1.822,5.872,-9.634,4.528
2.462,6.085,-8.554,4.621
1.908,4.423,-7.669,4.644
1.131,5.192,-6.677,4.647
0.8,6.0,-7.3,4.649
0.792,6.077,-8.031,4.721
1.008,6.523,-8.369,4.723
1.485,6.554,-6.962,4.73
0.946,5.038,-7.115,4.731
-0.611,3.279,-8.391,4.822
-0.826,2.849,-8.86,4.823
-0.849,4.502,-8.081,4.827
-0.202,4.396,-7.938,4.828
-0.604,4.491,-8.077,4.897
-0.928,4.445,-8.398,4.899
-0.691,3.517,-7.847,4.902
-0.683,3.734,-7.794,4.904
-0.683,3.734,-7.794,4.999
-0.647,3.606,-7.843,5.001
-0.509,3.883,-8.053,5.004
-0.302,3.896,-8.138,5.099
-0.177,3.947,-8.179,5.101
-0.209,4.083,-8.353,5.102
1.301,3.695,-9.036,5.196
1.275,3.624,-9.359,5.198
1.397,3.714,-9.791,5.2
1.229,4.657,-12.186,5.201
0.085,5.054,-11.662,5.323
0.7,5.5,-9.5,5.325
1.3,5.9,-8.0,5.326
2.415,4.946,-6.538,5.328
3.223,5.969,-6.508,5.431
2.031,6.892,-9.477,5.442
1.408,6.423,-11.969,5.444
0.362,5.685,-10.654,5.445
1.838,5.015,-7.346,5.449
1.723,4.469,-7.608,5.455
1.431,3.892,-8.377,5.528
0.854,4.262,-9.085,5.529
1.031,5.392,-9.077,5.533
1.462,5.085,-8.854,5.534
1.615,4.846,-8.538,5.62
1.3,4.7,-8.4,5.622
1.431,4.192,-8.277,5.626
1.538,4.315,-8.046,5.721
1.9,4.3,-7.6,5.724
2.038,4.215,-7.446,5.725
2.354,4.262,-7.185,5.738
2.769,4.508,-7.423,5.822
2.6,4.8,-7.5,5.823
2.792,4.877,-7.631,5.828
2.471,3.543,-8.414,5.832
2.689,3.557,-8.466,5.896
3.023,3.386,-8.269,5.898
3.049,3.457,-7.946,5.901
2.754,4.029,-7.863,5.909
1.776,3.518,-8.482,5.994
1.722,3.525,-8.675,5.996
1.657,3.649,-8.651,5.997
1.004,3.614,-8.986,6.121
0.775,3.461,-9.239,6.123
0.665,3.376,-9.524,6.128
0.665,3.276,-9.424,6.13
0.912,3.041,-8.359,6.243
0.792,3.073,-8.427,6.249
0.525,3.039,-8.561,6.252
0.453,2.635,-8.765,6.256
0.176,1.918,-7.882,6.26
0.71,1.984,-7.616,6.322
0.58,2.031,-7.369,6.324
0.912,1.741,-7.059,6.326
1.988,1.859,-6.841,6.329
3.642,2.09,-6.792,6.395
4.37,3.152,-6.342,6.397
5.926,4.271,-5.877,6.398
10.043,7.186,-0.129,6.402
13.138,9.71,2.752,6.495
16.165,8.276,4.439,6.496
16.809,6.557,6.874,6.526
18.706,-0.871,1.622,6.596
15.572,-3.53,-4.847,6.597
2.567,-0.721,-1.015,6.599
-14.691,-5.557,10.382,6.601
-25.583,-11.943,-1.479,6.721
-46.577,-15.009,-2.896,6.722
-47.409,0.621,-10.211,6.724
-35.611,5.177,6.962,6.726
18.304,-32.793,-32.574,6.822
20.855,-28.655,-38.964,6.824
26.724,-17.344,-48.091,6.825
7.798,-12.958,-43.055,6.831
-16.263,28.632,44.974,6.838
16.26,21.326,0.19,6.92
3.74,-18.626,-41.49,6.932
-13.048,-17.148,-34.512,6.933
12.739,12.215,-2.306,6.937
-10.333,16.406,-5.331,7.021
-12.331,-34.176,-9.822,7.022
-11.171,-14.043,-10.586,7.027
1.568,-14.329,-8.819,7.031
2.911,-6.857,-3.76,7.12
0.932,-3.271,-0.981,7.122
-1.797,-3.787,2.042,7.124
-3.491,-0.766,2.712,7.127
-0.465,2.605,0.636,7.221
2.475,2.185,-5.064,7.222
3.905,3.975,-11.436,7.224
1.3,-7.9,-13.8,7.3
-3.257,-12.119,-10.466,7.31
-2.085,-6.579,-13.048,7.312
0.084,-3.163,-10.262,7.313
1.277,2.109,-11.104,7.395
0.564,-0.36,-9.17,7.397
-0.43,-3.826,-8.587,7.399
2.285,-7.013,-7.094,7.402
1.494,-7.442,-11.776,7.497
0.745,-7.282,-11.282,7.499
1.361,-5.376,-8.742,7.501
2.164,-5.955,-5.455,7.502
3.038,-2.046,-10.115,7.623
3.338,-0.446,-12.215,7.624
4.491,-0.164,-13.974,7.626
3.126,0.291,-12.179,7.628
2.265,1.839,-2.683,7.732
-0.757,2.526,-0.622,7.733
0.813,2.248,-3.357,7.735
0.76,1.2,-6.18,7.737
-2.644,0.698,-15.854,7.82
-3.009,5.285,-13.776,7.822
-2.976,4.291,-9.815,7.824
-0.126,2.855,-6.629,7.825
0.286,-3.429,-9.857,7.92
5.071,-11.557,-14.114,7.922
-0.2,-7.3,-15.2,7.924
1.514,2.429,-14.943,7.925
5.825,1.018,-7.643,8.024
2.614,-0.351,-4.163,8.026
1.82,-0.189,-5.631,8.028
1.715,0.776,-7.791,8.029
2.186,1.551,-10.237,8.12
0.738,1.641,-8.278,8.126
0.748,-0.29,-8.258,8.128
1.616,0.303,-7.919,8.129
2.667,-0.047,-9.993,8.221
4.044,0.582,-11.036,8.224
4.589,0.524,-11.051,8.226
4.1,0.48,-10.64,8.228
3.982,0.143,-9.625,8.295
3.57,-0.053,-8.817,8.297
3.182,0.143,-8.225,8.299
3.01,0.642,-8.452,8.3
3.3,1.4,-8.9,8.394
3.342,0.848,-8.69,8.396
3.211,0.469,-8.28,8.401
3.376,0.409,-8.185,8.434
1.967,0.913,-9.773,8.517
1.589,0.484,-9.831,8.518
1.611,-0.004,-9.809,8.52
1.989,-0.036,-9.971,8.596
2.378,0.749,-10.202,8.602
2.156,0.798,-9.804,8.604
1.967,0.773,-9.253,8.606
3.543,0.675,-8.518,8.695
3.567,1.067,-8.733,8.698
3.632,0.906,-8.739,8.7
3.543,0.675,-8.518,8.702
2.033,1.027,-9.147,8.795
2.044,0.922,-9.656,8.799
2.067,0.633,-9.733,8.8
2.067,0.633,-9.733,8.829
2.111,0.716,-9.769,8.899
2.111,0.716,-9.769,8.902
1.978,0.729,-9.342,8.904
1.9,0.98,-9.14,8.905
1.944,1.062,-9.176,8.995
1.956,1.018,-9.264,9.006
1.956,1.018,-9.264,9.008
1.956,1.018,-9.264,9.01
2.122,0.931,-9.538,9.12
1.967,0.713,-9.673,9.129
2.056,0.678,-9.644,9.131
2.0,0.84,-9.62,9.132
2.1,0.76,-9.68,9.221
1.933,0.847,-9.407,9.229
2.011,1.056,-9.389,9.241
1.967,0.973,-9.353,9.243
1.922,0.891,-9.318,9.245
1.967,0.973,-9.353,9.322
2.1,1.02,-9.36,9.323
2.078,0.849,-9.502,9.328
2.089,0.804,-9.591,9.33
2.0,0.84,-9.62,9.422
2.089,0.804,-9.591,9.423
2.078,0.849,-9.502,9.425
1.967,0.973,-9.353,9.43
2.067,0.893,-9.413,9.504
2.111,0.976,-9.449,9.506
2.089,1.064,-9.271,9.509
1.967,0.973,-9.353,9.512
2.078,0.849,-9.502,9.605
2.122,0.931,-9.538,9.608
2.122,0.931,-9.538,9.609
2.0,0.9,-9.2,9.697
2.067,0.633,-9.733,9.702
1.956,0.958,-9.684,9.703
2.056,0.938,-9.324,9.708
2.543,0.698,-8.995,9.802
2.593,0.852,-9.179,9.806
2.353,0.532,-8.479,9.808
2.615,0.197,-8.742,9.809
2.512,0.419,-8.747,9.922
3.072,0.499,-8.747,9.925
2.472,-0.301,-7.947,9.927
1.503,-0.522,-5.895,9.928
2.565,-0.457,-6.858,9.997
2.854,4.024,-11.511,10.011
3.519,3.367,-8.568,10.014
2.712,0.519,-6.547,10.016
0.516,-0.111,-10.974,10.018
3.87,3.047,-10.117,10.131
1.603,0.081,-8.884,10.141
1.117,-0.27,-9.947,10.143
1.699,-0.227,-11.572,10.195
1.581,0.016,-9.097,10.198
0.891,1.285,-10.676,10.2
2.692,2.369,-9.796,10.295
3.194,-0.098,-8.647,10.297
2.463,0.212,-10.682,10.3
1.345,2.118,-7.222,10.303
3.042,0.373,-11.102,10.395
1.326,0.398,-10.846,10.425
-1.226,0.602,-9.654,10.436
0.779,1.554,-10.019,10.438
1.617,2.555,-10.851,10.495
1.302,0.332,-11.306,10.497
1.68,-3.6,-10.24,10.507
0.98,-2.6,-12.64,10.509
-0.956,-4.84,-10.592,10.6
-0.368,-3.22,-10.276,10.601
-0.144,-8.26,-10.108,10.605
-2.364,-9.56,-8.648,10.606
-2.028,-10.62,-8.396,10.695
0.508,-9.88,-8.744,10.697
-2.48,-8.7,-6.86,10.705
-1.396,-8.94,-7.172,10.707
-2.006,-8.571,-7.316,10.82
-0.667,-8.119,-7.468,10.822
1.539,-8.648,-6.453,10.829
2.368,-7.053,-6.379,10.831
2.022,-6.761,-5.113,10.921
3.378,-6.239,-4.187,10.923
5.239,-5.77,-3.743,10.926
5.809,-5.804,-3.165,10.928
6.2,-6.0,-2.3,10.933
5.916,-5.656,-0.275,11.031
5.237,-4.257,-0.561,11.034
5.263,-4.123,-0.599,11.041
5.7,-4.12,-1.34,11.043
5.553,-5.193,-1.796,11.126
5.332,-8.132,-2.289,11.129
5.174,-8.134,-3.462,11.14
4.953,-8.133,-3.876,11.147
5.058,-8.558,-4.247,11.218
4.047,-8.887,-4.264,11.222
3.9,-7.64,-4.98,11.227
3.804,-5.652,-7.183,11.323
1.648,-4.874,-8.609,11.325
3.53,-6.365,-7.578,11.328
4.517,-6.109,-7.03,11.33
5.4,-4.2,-5.9,11.332
3.556,-6.881,-8.822,11.396
4.511,-6.257,-8.294,11.399
4.225,-5.824,-8.288,11.401
3.031,-4.157,-7.434,11.403
1.988,-2.638,-7.056,11.496
2.231,-1.454,-7.1,11.507
2.331,-1.954,-6.8,11.515
2.655,-1.483,-6.1,11.6
0.879,-1.696,-6.8,11.602
2.251,-4.505,-9.0,11.607
3.883,-5.345,-10.5,11.609
3.963,-6.011,-10.7,11.696
2.633,-5.81,-10.5,11.698
0.974,-4.748,-9.5,11.701
2.862,-4.341,-9.9,11.703
2.446,-6.131,-9.8,11.82
1.985,-6.323,-9.5,11.826
1.177,-5.685,-8.5,11.829
1.754,-3.169,-8.1,11.831
0.669,-3.946,-7.8,11.902
0.077,-5.385,-7.5,11.904
2.092,-3.172,-7.3,11.922
1.811,-3.837,-7.6,11.923
2.804,-4.979,-7.8,11.925
