accel_time_list,accel_x_list,accel_y_list,accel_z_list
0.0,-0.6,3.8,9.3
0.002,-0.3,3.5,9.3
0.003,-0.3,3.2,9.0
0.009,1.1,3.5,7.8
0.098,0.5,3.7,9.4
0.099,1.6,4.1,9.2
0.101,0.2,2.6,9.0
0.102,-0.9,4.1,9.0
0.198,0.7,3.4,9.2
0.199,0.7,3.1,8.9
0.201,0.1,3.8,9.0
0.203,-0.0,4.0,8.6
0.298,-1.6,4.5,7.5
0.299,-1.3,3.0,6.9
0.305,-0.6,3.8,7.6
0.321,-1.0,4.4,7.7
0.44,-1.5,6.1,6.6
0.442,-2.2,5.9,5.8
0.443,-2.7,4.7,4.4
0.445,-2.9,3.5,3.4
0.5,-2.8,1.0,1.4
0.502,-2.8,-0.1,1.0
0.503,-4.5,-1.0,1.1
0.505,-7.5,-2.3,2.5
0.598,-13.4,-3.6,3.5
0.599,-14.1,-4.7,1.6
0.601,-14.5,-4.4,0.4
0.603,-15.6,-3.4,0.5
0.699,-21.0,-4.8,5.7
0.701,-19.8,-5.9,4.6
0.702,-15.6,-7.1,2.5
0.712,-14.3,-7.3,1.4
0.8,-13.6,-6.4,1.9
0.801,-13.0,-4.3,2.8
0.803,-12.1,-3.6,3.4
0.805,-11.3,-3.8,3.4
0.899,-10.6,-3.2,3.5
0.901,-9.7,-3.7,3.7
0.902,-8.8,-4.6,3.9
0.904,-8.5,-5.4,3.5
0.999,-8.6,-5.0,3.8
1.001,-8.7,-4.8,4.4
1.002,-9.2,-4.1,4.6
1.004,-9.6,-3.5,4.7
1.099,-10.1,-2.2,4.5
1.101,-10.0,-1.7,4.2
1.11,-10.1,-1.6,3.8
1.112,-10.7,-1.6,3.8
1.199,-10.7,-1.1,3.6
1.204,-10.2,-0.9,3.6
1.206,-10.1,-0.7,3.7
1.207,-10.0,-0.5,3.6
1.298,-9.4,-1.1,3.6
1.3,-9.1,-1.1,3.7
1.302,-8.5,-0.8,3.5
1.303,-8.2,-1.0,3.3
1.404,-8.2,-0.9,3.3
1.405,-7.7,-0.7,3.3
1.407,-7.6,-0.8,3.3
1.408,-7.9,-0.6,3.3
1.499,-7.7,-0.8,3.3
1.513,-7.8,-0.8,3.2
1.52,-7.6,-1.0,3.2
1.522,-7.7,-1.4,3.2
1.6,-8.5,-1.5,3.7
1.602,-8.5,-1.5,3.8
1.604,-8.8,-1.5,3.7
1.605,-9.1,-1.4,3.7
1.699,-9.9,-1.4,4.0
1.704,-9.7,-1.5,4.0
1.706,-9.7,-1.7,4.0
1.707,-10.0,-1.8,3.9
1.799,-9.9,-1.8,4.0
1.8,-10.1,-1.7,4.0
1.802,-10.7,-1.7,3.9
1.804,-11.6,-1.6,3.8
1.907,-11.1,-2.0,4.1
1.908,-10.9,-2.0,3.9
1.91,-9.6,-2.2,3.7
1.912,-8.6,-2.2,3.8
1.999,-9.2,-2.6,3.6
2.001,-9.2,-2.9,3.4
2.009,-9.5,-3.1,3.3
2.01,-10.2,-3.3,3.2
2.098,-10.2,-3.2,3.2
2.104,-10.9,-3.3,3.4
2.106,-11.9,-3.0,3.6
2.198,-12.5,-2.0,3.5
2.205,-12.4,-1.3,2.7
2.207,-12.0,-1.5,2.3
2.209,-11.9,-1.5,1.9
2.303,-12.0,-1.2,2.6
2.315,-11.3,-0.7,1.9
2.316,-10.3,-1.3,1.6
2.318,-9.7,-1.9,1.8
2.397,-9.6,-2.4,1.9
2.404,-8.8,-2.3,2.2
2.406,-8.7,-2.3,1.8
2.407,-8.0,-1.9,1.7
2.522,-7.3,-1.6,1.8
2.526,-7.8,-1.4,1.4
2.527,-7.3,-1.6,1.4
2.529,-7.0,-1.4,2.1
2.598,-7.3,-1.3,2.2
2.602,-7.2,-1.4,2.3
2.603,-7.0,-1.4,2.5
2.605,-6.5,-1.5,2.5
2.615,-6.7,-1.6,3.0
2.697,-8.7,-2.3,5.2
2.699,-9.2,-3.2,5.1
2.701,-9.8,-5.4,4.9
2.796,-11.1,-7.5,4.9
2.8,-11.3,-7.7,4.8
2.801,-10.9,-7.0,5.0
2.803,-11.0,-6.8,5.4
2.926,-10.6,-7.4,5.8
2.93,-9.3,-7.7,5.8
2.931,-9.5,-8.4,5.7
2.933,-9.7,-9.5,5.4
3.024,-9.7,-9.7,5.3
3.034,-9.6,-7.6,4.4
3.035,-10.6,-6.8,3.5
3.045,-11.9,-6.3,3.3
3.047,-12.5,-5.7,3.6
3.123,-11.8,-5.5,3.2
3.125,-12.8,-5.0,2.4
3.127,-14.1,-4.2,1.7
3.129,-14.2,-3.2,1.2
3.202,-11.3,0.0,0.4
3.204,-8.2,1.6,0.9
3.205,-5.8,0.7,1.0
3.297,-4.7,-1.1,1.9
3.3,-7.0,-0.5,2.3
3.302,-7.9,1.3,1.7
3.303,-7.6,2.5,1.7
3.397,-6.7,2.3,2.2
3.4,-6.2,1.6,2.3
3.429,-6.7,0.9,2.4
3.43,-7.4,-0.4,2.4
3.525,-7.9,-1.0,2.7
3.529,-8.2,-1.0,3.3
3.53,-8.7,-0.9,3.6
3.532,-9.4,-0.5,4.9
3.598,-10.7,-0.5,5.9
3.602,-14.1,-1.7,6.8
3.603,-15.3,-4.0,5.4
3.608,-16.0,-6.6,4.7
3.61,-16.9,-7.3,5.3
3.697,-15.3,-5.1,5.8
3.699,-12.6,-3.8,6.2
3.7,-12.5,-1.1,6.7
3.796,-11.0,0.4,6.7
3.813,-7.7,-1.7,4.4
3.814,-9.3,-3.4,3.0
3.922,-10.2,-4.3,2.3
3.923,-10.0,-4.8,2.1
3.927,-10.4,-3.3,2.7
3.928,-10.4,-1.9,3.3
4.024,-10.7,-0.7,3.4
4.025,-11.0,0.3,2.7
4.029,-8.1,1.2,1.4
4.03,-7.6,0.4,1.2
4.032,-8.6,-1.0,1.5
4.033,-9.1,-0.8,1.6
4.103,-8.4,0.1,0.5
4.104,-7.5,-0.1,0.4
4.106,-8.8,-0.7,-0.5
4.107,-12.6,-1.2,-1.2
4.196,-12.2,-1.1,2.5
4.198,-9.9,-0.5,4.0
4.322,-8.2,-0.4,3.9
4.323,-7.5,-0.1,3.7
4.326,-9.4,-1.0,3.5
4.328,-9.8,-0.6,3.7
4.423,-9.1,-0.4,3.8
4.425,-8.9,-0.6,3.8
4.428,-9.9,-1.7,3.6
4.434,-10.7,-2.0,3.8
4.436,-10.3,-2.2,4.1
4.497,-11.0,-2.4,4.4
4.5,-10.5,-2.8,5.0
4.507,-9.9,-2.9,5.7
4.508,-9.7,-3.1,6.3
4.595,-9.5,-3.1,6.8
4.598,-9.7,-3.4,5.8
4.603,-11.1,-3.1,5.3
4.721,-14.0,-2.6,5.6
4.723,-16.2,-1.9,5.7
4.726,-11.2,-2.6,5.0
4.731,-11.8,-1.9,4.7
4.824,-12.3,-0.9,4.6
4.825,-12.4,-0.8,4.0
4.829,-12.4,-1.7,2.9
4.83,-12.2,-1.4,2.8
4.832,-11.9,-1.2,2.9
4.896,-11.9,-1.1,2.7
4.906,-11.6,-1.5,1.9
4.908,-11.3,-1.7,1.7
4.917,-11.4,-1.7,1.6
4.994,-12.3,-1.4,1.0
4.998,-11.2,0.3,-0.7
5.0,-10.2,0.8,-0.6
5.121,-10.0,2.1,-0.7
5.123,-9.3,1.9,0.2
5.126,-6.6,3.9,2.3
5.127,-6.0,2.0,2.1
5.197,-5.3,-1.2,3.8
5.199,-5.9,-1.8,4.9
5.202,-6.0,-1.8,2.0
5.204,-6.1,-1.8,5.8
5.211,-7.6,-2.9,9.4
5.324,-8.6,-5.1,9.0
5.327,-4.5,-5.7,8.9
5.337,-5.7,-4.2,9.2
5.422,-7.7,-3.3,9.3
5.424,-6.6,-4.2,8.6
5.427,-5.0,-6.4,8.8
5.429,-5.1,-5.9,9.4
5.43,-5.2,-5.7,9.2
5.521,-3.2,-8.1,11.0
5.524,0.1,-10.5,15.3
5.527,2.0,-14.9,18.7
5.529,-5.3,-17.6,18.2
5.621,-13.8,-16.1,13.4
5.624,-17.2,-7.7,6.2
5.626,-17.9,-7.1,4.6
5.628,-19.1,-4.9,1.7
5.721,-15.8,-2.1,-2.3
5.736,-15.8,2.7,-7.0
5.738,-6.0,8.3,-11.8
5.74,3.3,14.5,-7.9
5.821,5.3,8.0,-6.6
5.824,10.3,5.2,-7.3
5.826,13.6,8.0,-2.8
5.896,3.7,0.7,5.2
5.901,-3.6,5.7,8.3
5.904,3.6,12.9,-8.6
5.906,-6.7,19.3,3.8
6.045,-31.1,7.5,-11.6
6.047,-32.2,-7.7,-18.4
6.05,-3.3,-21.0,-22.9
6.124,-38.9,-19.0,34.2
6.126,-38.4,5.0,39.2
6.131,-38.9,-30.1,39.2
6.143,21.9,10.3,-15.4
6.145,32.5,19.8,-28.4
6.147,11.1,-11.5,-10.4
6.22,-11.3,-6.3,-0.7
6.224,-8.2,-16.5,20.1
6.225,4.9,-16.5,28.1
6.321,10.4,-9.7,19.6
6.323,3.0,6.3,6.7
6.331,-4.5,-9.3,-10.4
6.332,-2.8,-15.3,6.6
6.425,0.7,-13.4,12.6
6.426,-0.4,3.5,1.8
6.43,-3.1,-1.3,8.5
6.431,-1.7,-1.8,12.0
6.521,0.1,-0.5,17.3
6.53,0.3,-6.7,9.7
6.534,-7.7,-0.1,12.4
6.535,-6.9,-1.3,17.0
6.595,-6.6,-0.7,12.5
6.6,-5.0,-0.6,5.3
6.603,-6.4,0.0,7.7
6.605,-6.7,-1.2,7.1
6.724,-7.5,-1.3,8.3
6.726,-7.3,0.3,5.7
6.729,-1.8,-1.1,8.3
6.822,-1.3,7.9,8.5
6.829,0.4,1.6,11.8
6.831,-2.4,1.9,11.7
6.834,-5.0,-3.8,11.7
6.836,-1.6,-1.0,6.4
6.921,-2.2,-6.1,4.4
6.923,1.9,-2.5,10.6
6.926,-2.7,-1.9,6.3
6.928,-3.1,-1.1,9.5
6.997,-4.6,-3.0,10.1
6.999,-4.7,-1.7,9.1
7.002,-1.0,-1.2,9.6
7.004,-1.3,-1.6,10.2
7.119,-2.2,-0.6,10.8
7.122,-1.9,0.0,11.6
7.224,-1.4,-0.9,11.2
7.226,-1.5,-1.2,9.9
7.233,-0.8,-2.0,8.4
7.234,-0.9,-1.9,9.3
7.238,-1.0,-1.0,8.4
7.247,-1.0,-1.6,8.8
7.316,-2.7,-2.5,11.3
7.32,-0.2,-0.4,9.7
7.329,-1.4,-1.0,9.2
7.33,-2.0,-1.1,9.4
7.424,-1.7,-1.8,8.9
7.425,-1.8,-1.9,8.7
7.522,-2.2,-1.5,9.5
7.527,-1.7,-0.5,10.1
7.529,-1.8,-0.4,10.5
7.531,-1.2,-0.5,10.9
7.534,-1.3,-0.4,10.5
7.627,-1.0,-0.5,9.9
7.629,-1.1,-0.8,9.6
7.63,-1.3,-1.1,9.2
7.644,-1.7,-1.7,8.8
7.721,-2.1,-1.2,8.9
7.723,-2.0,-1.4,8.9
7.724,-1.8,-1.4,8.9
7.731,-1.4,-0.7,10.1
7.821,-1.7,-0.7,10.4
7.822,-1.3,-0.6,10.7
7.824,-1.2,-0.3,10.8
7.829,-1.4,-0.8,9.9
7.921,-1.5,-1.0,9.8
7.928,-1.6,-1.1,9.6
7.929,-1.8,-0.9,9.4
7.933,-1.5,-1.3,9.0
7.996,-1.6,-0.8,9.0
7.998,-1.7,-0.9,9.2
7.999,-1.7,-0.7,9.9
8.018,-1.4,-1.3,9.9
8.12,-1.4,-0.7,10.3
8.122,-1.4,-0.3,10.4
8.124,-1.5,-0.8,9.9
8.222,-1.5,-0.9,9.4
8.223,-1.5,-0.6,9.6
8.225,-1.5,-0.7,9.5
8.226,-1.5,-0.6,9.8
8.233,-1.5,-0.9,9.7
8.321,-1.9,-1.2,9.8
8.323,-1.9,-1.1,10.0
8.324,-1.7,-0.9,9.5
8.328,-1.4,-1.0,9.5
8.42,-1.4,-0.7,9.6
8.421,-1.4,-0.5,9.9
8.446,-1.6,-0.7,10.1
8.45,-1.4,-1.1,9.9
8.52,-1.3,-1.2,9.8
8.522,-1.6,-0.9,9.6
8.523,-1.6,-0.9,9.5
8.527,-1.5,-0.9,9.6
8.62,-1.4,-1.1,9.7
8.622,-1.6,-0.7,9.6
8.623,-1.2,-0.3,9.7
8.632,-1.6,-1.0,9.4
8.695,-1.7,-1.2,9.7
8.702,-1.6,-0.8,10.2
8.704,-1.7,-0.7,10.1
8.707,-1.3,-0.7,9.8
8.818,-1.5,-1.0,9.6
8.828,-1.3,-0.8,9.7
8.83,-1.4,-1.0,9.7
8.929,-1.4,-0.7,9.4
8.93,-1.6,-1.2,9.7
8.932,-1.6,-0.7,9.9
8.934,-1.6,-0.9,10.0
9.021,-1.5,-1.2,9.6
9.023,-1.7,-1.0,9.5
9.025,-1.6,-0.2,9.8
9.026,-1.5,-0.6,9.7
9.03,-1.5,-1.3,9.6
9.12,-1.4,-0.9,9.7
9.122,-1.7,-0.5,9.8
9.124,-1.6,-0.9,9.9
9.127,-1.5,-1.1,9.7
9.22,-1.6,-1.1,9.8
9.225,-1.6,-0.8,9.7
9.227,-1.8,-1.0,9.5
9.32,-1.8,-0.6,9.9
9.322,-1.6,-1.0,9.7
9.324,-1.5,-1.1,9.9
9.325,-1.2,-0.8,9.7
9.399,-1.4,-1.6,9.3
9.4,-1.7,-0.8,9.9
9.402,-2.1,-0.3,9.8
9.404,-1.9,-0.7,9.7
9.518,-1.8,-0.1,9.9
9.52,-1.7,-0.2,9.7
9.522,-1.4,-0.5,9.4
9.523,-1.3,-0.2,9.7
9.639,-1.6,-1.1,9.9
9.641,-1.7,-1.1,9.9
9.642,-1.7,-1.2,9.6
9.644,-1.4,-0.9,9.6
9.727,-1.5,-0.7,9.8
9.729,-1.6,-0.8,9.6
9.73,-1.6,-1.1,9.7
9.732,-1.6,-1.3,9.8
9.82,-1.6,-0.8,9.8
9.822,-1.5,-0.9,9.7
9.824,-1.6,-0.8,9.7
9.825,-1.7,-1.0,9.7
9.92,-1.7,-0.8,9.8
9.922,-1.7,-1.0,9.8
9.924,-1.6,-0.9,9.6
9.925,-1.6,-0.9,9.6
10.024,-1.7,-0.9,9.8
10.026,-1.6,-0.9,9.8
10.027,-1.6,-0.7,9.8
10.029,-1.5,-0.8,9.7
10.095,-1.5,-0.8,9.7
10.097,-1.6,-1.0,9.7
10.098,-1.7,-1.1,9.7
10.1,-1.7,-1.0,9.7
10.219,-1.7,-1.0,9.7
10.22,-1.6,-0.8,9.8
10.222,-1.7,-1.1,9.6
10.224,-1.5,-1.4,9.5
10.336,-1.6,-1.1,9.7
10.338,-1.6,-1.0,9.7
10.339,-1.5,-1.0,9.7
10.351,-1.8,-1.1,9.7
10.421,-1.7,-0.9,9.7
10.422,-1.6,-0.9,9.8
10.424,-1.6,-0.8,9.8
10.426,-1.7,-1.1,9.6
10.52,-1.8,-1.2,9.3
10.522,-1.3,-1.1,9.6
10.523,-2.0,-0.8,10.1
10.525,-1.6,-1.0,9.9
10.62,-1.6,-0.7,9.9
10.622,-1.6,-0.9,9.7
10.623,-1.6,-1.6,8.5
10.625,-1.5,-0.9,10.3
10.72,-1.8,-1.0,10.0
10.722,-1.7,-0.8,9.5
10.732,-1.8,-0.7,9.9
10.741,-1.7,-1.0,9.8
10.795,-1.6,-1.1,9.4
10.798,-1.8,-1.0,9.8
10.8,-1.7,-0.9,9.8
10.805,-1.7,-1.0,9.7
10.921,-1.7,-0.8,9.6
10.923,-1.8,-1.1,9.5
10.929,-1.5,-1.1,9.8
11.021,-1.8,-1.0,9.8
11.024,-1.6,-1.0,9.8
11.026,-1.7,-1.1,9.6
11.027,-1.6,-1.1,9.5
11.036,-1.7,-0.9,9.7
11.125,-1.9,-0.8,9.9
11.134,-1.8,-0.9,9.8
11.138,-1.7,-1.0,9.6
11.141,-1.5,-1.3,9.6
11.225,-1.9,-0.5,10.1
11.226,-1.6,-1.3,9.9
11.228,-1.6,-1.5,9.6
11.23,-1.1,-1.1,9.4
11.33,-1.3,-0.5,9.8
11.332,-1.4,-0.7,9.6
11.334,-1.4,-1.0,9.5
11.335,-1.8,-0.9,9.8
11.421,-1.3,-1.3,10.0
11.423,-1.2,-1.1,9.9
11.427,-0.7,-0.7,8.9
11.429,-0.9,0.2,10.0
11.508,-2.2,-1.5,9.9
11.51,-1.7,-1.2,9.2
11.512,-1.7,-1.5,8.7
11.513,-1.7,-1.2,9.8
11.619,-1.6,-1.4,9.6
11.621,-1.6,-0.6,9.2
11.622,-0.9,-1.1,9.4
11.721,-1.9,-1.7,10.1
11.725,-1.5,-0.9,9.2
11.734,-2.1,-1.4,8.8
11.736,-2.3,-1.6,8.9
11.738,-1.4,-2.4,9.8
11.825,-1.8,-1.6,9.8
11.827,-1.4,-1.3,8.9
11.833,-1.9,-0.9,8.7
11.836,-0.9,-2.2,9.5
11.922,-1.5,-1.2,9.9
11.923,-3.0,-1.5,9.0
11.925,-2.0,-0.7,8.6
11.926,-2.0,-1.2,9.2
12.032,-2.3,-1.9,8.7
12.034,-1.3,-1.4,8.6
12.036,-0.4,-1.0,9.2
12.039,-1.1,-1.3,9.9
12.121,-1.2,-2.8,11.4
12.123,-1.0,-5.5,11.5
12.125,-0.9,-0.8,11.5
12.126,-0.9,-1.2,10.5
12.196,-1.4,-5.8,10.3
12.202,0.2,-7.0,11.7
12.204,3.3,-6.4,13.3
12.213,4.8,-1.5,12.1
12.324,8.1,-2.5,10.9
12.326,9.5,-3.2,9.8
12.421,8.1,-2.4,9.0
12.423,7.6,1.0,8.4
12.426,5.7,-2.2,9.1
12.431,3.8,-6.1,10.3
12.433,4.1,-5.9,9.1
12.52,3.4,-4.3,6.8
12.525,-4.0,-3.9,8.8
12.527,-5.1,-7.7,11.1
12.528,-4.3,-6.7,11.6
12.62,-4.0,-2.6,10.9
12.623,-2.1,4.1,8.0
12.625,-2.5,4.7,8.5
12.634,-5.3,3.4,10.8
12.721,-7.5,-0.6,8.3
12.727,-6.7,6.2,7.4
12.73,-6.0,5.9,5.0
12.732,-4.7,4.3,5.1
12.819,-7.6,8.5,7.9
12.823,-1.1,7.2,11.1
12.824,5.4,7.2,12.5
12.826,3.7,7.3,13.6
12.895,2.3,8.0,12.2
12.9,1.8,3.4,5.9
12.902,2.4,3.5,6.4
12.904,3.0,3.3,7.3
13.025,1.1,2.8,7.7
13.028,4.5,7.2,10.2
13.038,0.4,0.3,8.9
13.096,1.4,6.8,8.1
13.098,2.7,5.6,8.8
13.101,1.7,5.0,6.9
13.106,2.8,6.4,7.8
13.109,3.0,4.1,8.3
13.221,3.9,4.5,9.1
13.224,2.0,6.1,8.3
13.226,1.0,6.1,7.5
13.319,-0.0,5.2,7.4
13.321,1.8,6.1,7.6
13.33,-0.2,5.7,8.9
13.331,5.9,8.1,7.9
13.42,0.9,3.7,6.8
13.422,-0.3,6.0,8.2
13.456,8.9,4.4,8.2
13.457,1.0,6.1,7.4
13.459,1.8,5.2,7.5
13.52,0.4,5.0,8.1
13.523,2.0,6.5,8.4
13.525,1.6,5.6,7.7
13.528,2.4,5.6,7.9
13.595,4.7,4.7,7.9
13.598,1.9,5.0,7.4
13.6,2.5,5.9,7.7
13.601,2.5,5.6,7.9
13.718,2.7,5.3,8.1
13.721,2.3,5.4,7.9
13.799,2.6,5.5,8.0
13.806,2.7,5.2,7.7
13.808,2.1,5.3,7.8
13.822,2.7,5.0,7.8
13.824,3.0,5.7,7.9
13.826,5.4,5.2,5.8
