vertical_Accel_x,vertical_Accel_y,vertical_Accel_z,accel_time_list
0.089,-7.391,-6.533,0.0
-1.007,-8.827,-7.222,0.001
1.169,-6.791,-7.093,0.003
0.544,-7.836,-7.169,0.126
-2.122,-8.282,-3.465,0.128
0.531,-6.709,-7.307,0.13
0.085,-6.855,-6.644,0.135
-0.26,-7.6,-6.18,0.137
0.213,-7.427,-6.262,0.228
0.238,-7.082,-6.485,0.23
-0.198,-7.418,-6.295,0.236
-0.162,-7.582,-6.185,0.238
-0.136,-7.236,-6.409,0.239
-0.229,-7.309,-6.487,0.241
-0.291,-7.491,-6.373,0.243
-0.42,-7.4,-6.56,0.326
-0.449,-7.209,-6.447,0.332
-0.229,-7.309,-6.487,0.333
-0.302,-7.382,-6.205,0.335
-0.455,-7.155,-6.364,0.347
-0.535,-7.255,-6.304,0.405
-0.687,-7.427,-5.962,0.407
-1.116,-7.336,-6.049,0.408
-1.647,-7.127,-5.742,0.41
-2.315,-7.255,-5.344,0.525
-2.698,-7.218,-4.795,0.526
-2.911,-6.691,-5.033,0.528
-3.038,-6.118,-5.415,0.533
-2.19,-4.221,-7.305,0.627
-2.19,-3.721,-7.405,0.633
-2.307,-2.687,-7.533,0.635
-2.295,-1.41,-7.848,0.637
-2.238,-0.524,-8.319,0.638
-2.069,0.337,-8.314,0.64
0.771,1.743,-8.314,0.733
0.9,1.9,-8.7,0.734
1.014,2.029,-8.843,0.736
0.786,2.671,-8.657,0.738
0.743,3.586,-8.429,0.748
2.8,5.5,-7.1,0.826
2.733,5.047,-7.076,0.828
2.228,4.032,-7.231,0.829
1.387,3.753,-7.764,0.831
0.719,4.421,-7.454,0.832
1.592,7.22,-4.556,0.926
1.212,7.82,-3.716,0.928
0.768,8.58,-3.424,0.929
0.74,9.3,-3.32,0.935
0.304,9.14,-3.772,0.937
2.264,9.48,-2.148,1.026
1.696,10.22,-2.572,1.028
1.068,10.76,-3.076,1.029
0.388,11.06,-3.316,1.031
0.136,11.62,-3.652,1.034
1.822,12.611,-2.922,1.125
1.286,12.966,-3.568,1.127
0.734,12.926,-3.007,1.142
1.09,13.004,-2.563,1.152
2.109,13.036,-2.664,1.153
3.039,12.539,1.192,1.226
2.543,11.843,1.331,1.227
2.635,11.135,1.353,1.229
2.959,10.559,0.988,1.231
2.769,10.169,0.586,1.236
2.404,9.704,0.339,1.326
2.469,9.369,0.186,1.328
2.549,9.249,0.09,1.33
2.565,9.465,0.147,1.331
2.21,9.61,0.398,1.333
1.935,9.635,0.553,1.426
1.953,9.753,0.629,1.432
2.106,9.906,0.359,1.434
1.967,9.967,0.167,1.436
1.729,10.029,-0.006,1.437
1.651,10.051,0.11,1.526
1.651,10.051,0.11,1.527
1.533,10.033,0.033,1.537
1.594,9.894,-0.159,1.539
1.498,9.798,-0.12,1.548
-0.679,9.617,-1.775,1.626
-0.657,9.526,-1.74,1.627
-0.53,9.321,-1.781,1.629
-0.515,9.36,-1.691,1.631
-0.426,9.506,-1.658,1.632
-0.553,9.411,-1.817,1.726
-0.53,9.321,-1.781,1.727
-0.426,9.206,-1.858,1.732
-0.353,9.311,-1.917,1.734
-0.375,9.402,-1.953,1.736
0.3,9.0,-3.3,1.826
0.412,8.915,-3.285,1.827
0.438,8.965,-3.202,1.829
0.611,9.056,-3.311,1.831
0.628,8.969,-3.265,1.832
0.672,8.931,-3.135,1.93
0.767,8.933,-3.167,1.941
0.835,8.886,-3.281,1.943
0.93,8.888,-3.312,1.944
0.27,9.221,-1.981,2.026
0.306,9.377,-2.166,2.027
0.238,9.649,-2.274,2.029
0.311,9.755,-2.332,2.031
0.319,9.625,-2.387,2.034
0.506,9.277,-2.266,2.132
0.528,9.187,-2.23,2.134
0.602,9.292,-2.289,2.135
0.721,9.217,-2.275,2.137
0.794,9.323,-2.334,2.143
0.809,9.362,-2.243,2.226
0.913,9.247,-2.321,2.231
1.017,9.132,-2.398,2.233
1.062,8.951,-2.326,2.235
1.174,9.006,-2.258,2.237
1.1,8.9,-2.2,2.333
1.1,8.9,-2.2,2.343
1.077,8.991,-2.236,2.345
1.077,8.991,-2.236,2.346
0.981,8.975,-2.213,2.348
1.085,9.16,-2.091,2.429
0.966,9.236,-2.104,2.431
0.885,9.26,-1.991,2.432
0.885,9.26,-1.991,2.434
0.885,9.26,-1.991,2.436
0.766,9.336,-2.004,2.526
0.625,9.502,-2.053,2.527
0.402,9.692,-1.989,2.529
0.321,9.717,-1.875,2.531
0.298,9.808,-1.911,2.532
0.291,9.938,-1.857,2.625
0.253,9.989,-1.983,2.627
0.253,9.989,-1.983,2.628
0.275,9.898,-1.947,2.63
0.326,10.094,-2.042,2.631
0.019,11.025,-2.287,2.724
-0.236,11.643,-2.515,2.726
-0.228,11.513,-2.57,2.728
-0.183,11.332,-2.498,2.729
-0.308,11.03,-2.345,2.731
0.414,10.234,-3.832,2.825
0.587,10.025,-3.641,2.827
0.647,9.901,-3.466,2.829
0.923,9.771,-3.596,2.83
1.019,9.832,-3.301,2.832
0.83,9.888,-2.912,2.925
0.831,9.947,-2.586,2.927
0.989,10.544,-2.389,2.929
1.103,11.179,-2.321,2.93
0.947,11.301,-2.466,2.932
0.68,11.208,-2.325,3.025
0.758,10.997,-2.103,3.027
1.111,10.656,-2.011,3.029
1.248,10.261,-1.939,3.03
1.154,9.959,-1.608,3.046
0.032,9.44,-2.624,3.125
-0.072,9.16,-2.596,3.127
0.16,9.0,-2.62,3.129
0.38,8.7,-2.66,3.13
0.664,8.58,-2.448,3.132
0.48,8.3,-2.36,3.225
0.504,8.08,-2.328,3.227
0.572,7.94,-2.404,3.229
0.604,7.88,-2.528,3.235
0.592,7.74,-2.544,3.236
-2.073,7.217,-2.765,3.327
-2.178,7.124,-2.743,3.329
-2.131,7.01,-2.997,3.331
-2.197,7.155,-3.153,3.332
-2.562,7.319,-3.294,3.334
-1.896,7.229,-4.336,3.425
-1.896,7.229,-4.336,3.427
-2.06,7.42,-4.5,3.429
-2.249,7.607,-5.009,3.438
-3.056,8.349,-5.536,3.44
-3.472,10.34,-6.401,3.525
-3.773,10.534,-6.628,3.527
-2.831,9.544,-6.48,3.533
-2.216,9.019,-6.203,3.534
-1.961,8.894,-6.032,3.536
-0.5,8.2,-6.7,3.625
-0.763,7.973,-6.796,3.626
-1.004,7.961,-6.837,3.628
-1.424,7.865,-7.024,3.629
-0.67,9.009,-5.617,3.73
-0.452,9.157,-5.513,3.731
-0.13,9.391,-4.983,3.733
0.135,8.996,-4.591,3.735
0.343,8.57,-4.039,3.736
0.747,9.011,-1.417,3.825
0.808,8.87,-1.255,3.827
0.785,8.96,-1.291,3.828
0.808,8.87,-1.255,3.838
0.851,8.896,-1.494,3.84
1.756,8.953,-0.785,3.925
1.843,9.056,-0.827,3.927
1.918,9.254,-0.899,3.928
1.927,9.285,-0.804,3.93
1.843,9.056,-0.827,3.932
1.846,8.93,-0.891,4.025
1.814,9.088,-1.046,4.027
1.758,9.435,-1.261,4.028
1.635,9.616,-1.31,4.031
1.711,9.814,-1.382,4.033
1.558,10.435,-1.361,4.125
1.269,11.049,-1.643,4.127
1.039,11.19,-1.774,4.128
0.838,11.299,-1.686,4.13
0.878,12.672,-2.037,4.132
-1.091,13.562,-3.543,4.225
-1.013,12.953,-3.179,4.227
-0.919,11.875,-2.613,4.237
-1.102,11.508,-2.311,4.239
-1.079,11.117,-2.475,4.24
0.478,10.346,-1.403,4.325
0.687,9.476,-0.866,4.327
0.63,9.403,-0.719,4.328
0.157,9.832,-0.827,4.33
-0.113,10.176,-0.966,4.332
-0.388,10.321,-1.27,4.399
-0.544,10.222,-1.144,4.401
-0.528,9.651,-0.937,4.407
-0.228,9.051,-0.637,4.408
0.073,8.927,-0.518,4.41
0.079,8.988,-0.303,4.523
0.049,8.762,0.04,4.525
0.136,8.664,0.391,4.531
0.27,8.697,0.424,4.532
-0.73,8.872,-0.675,4.626
-1.149,9.16,-1.077,4.628
-1.272,9.409,-0.87,4.637
-1.189,9.416,-0.926,4.639
-1.368,9.847,-0.779,4.648
-1.435,9.914,-0.512,4.65
-2.693,9.147,-1.267,4.725
-2.415,8.879,-1.09,4.726
-2.326,9.077,-1.271,4.728
-2.513,9.407,-1.667,4.729
-2.563,8.989,-1.486,4.731
-2.25,8.318,-1.181,4.825
-1.997,8.091,-1.414,4.826
-1.79,8.038,-1.481,4.828
-1.668,7.97,-1.495,4.83
-1.796,7.855,-1.352,4.831
-1.002,8.222,-0.849,4.924
-0.833,8.733,-0.833,4.926
-0.604,9.144,-1.398,4.928
-0.504,8.944,-1.698,4.929
-0.724,8.744,-1.738,4.931
-0.044,8.578,-2.456,5.024
0.259,9.157,-2.777,5.03
0.511,10.056,-2.911,5.032
1.555,10.018,-3.582,5.033
1.883,9.387,-2.946,5.035
3.107,8.787,-1.549,5.124
2.694,8.826,-1.743,5.126
3.843,8.52,-0.697,5.128
6.435,7.921,-0.155,5.129
6.442,6.907,0.296,5.136
6.226,6.509,0.78,5.224
6.486,5.627,1.699,5.226
8.634,5.008,1.738,5.228
9.481,6.277,2.87,5.235
9.395,7.784,0.545,5.325
7.195,7.184,-1.255,5.327
5.604,8.411,-0.864,5.329
4.538,10.915,-1.318,5.33
2.865,12.896,-2.145,5.332
0.72,12.682,-4.516,5.424
0.041,11.463,-4.333,5.426
-0.935,10.561,-6.412,5.428
-3.014,9.343,-5.529,5.429
-3.224,6.102,-4.12,5.431
-2.622,0.822,-4.411,5.527
-5.342,-4.63,-3.13,5.528
-13.842,-5.73,-0.03,5.536
-17.137,-3.717,-0.551,5.537
-24.745,6.282,2.982,5.539
-18.385,6.972,1.017,5.625
-29.077,6.085,-42.245,5.631
-21.583,20.426,-33.823,5.633
-20.609,43.287,-2.038,5.634
-8.509,44.487,-3.038,5.636
2.998,36.447,15.64,5.725
15.415,9.972,4.517,5.727
12.238,-13.443,-4.928,5.728
12.823,-4.615,0.055,5.73
-4.004,20.994,12.681,5.745
-10.0,17.077,-5.815,5.8
-1.7,7.723,-9.285,5.805
-1.8,17.138,-26.208,5.806
1.6,16.992,-5.238,5.808
6.3,13.931,1.454,5.81
-3.587,8.291,2.162,5.923
-6.819,3.813,-2.043,5.924
9.523,-1.649,-2.07,5.926
17.447,-0.998,-8.84,5.932
17.5,9.9,-10.2,6.029
10.12,7.045,-10.196,6.03
8.067,3.108,-5.427,6.032
9.414,1.171,-0.457,6.034
10.147,2.663,-1.431,6.035
6.969,5.533,-5.506,6.037
-0.113,3.312,-4.152,6.125
-1.703,1.457,-3.52,6.126
-0.565,0.291,-3.811,6.128
1.518,2.145,-6.356,6.143
3.927,0.375,-9.797,6.145
4.479,-0.13,-9.281,6.225
-0.032,1.517,-5.898,6.226
-5.14,0.815,-3.709,6.228
-8.604,-1.251,-6.206,6.23
-5.334,0.042,-7.751,6.231
2.024,4.925,-10.745,6.325
3.358,8.447,-15.527,6.326
4.384,10.905,-11.845,6.328
3.118,13.627,-15.127,6.33
4.524,8.925,-20.845,6.331
3.433,3.133,-15.367,6.429
1.687,4.567,-8.973,6.431
1.41,4.852,-7.105,6.432
1.754,5.629,-6.637,6.434
0.432,8.838,-5.836,6.435
0.396,10.907,-7.523,6.525
4.346,8.869,-8.883,6.532
7.743,7.499,-7.425,6.542
6.913,9.902,-3.849,6.544
6.333,9.367,-0.833,6.545
5.342,8.462,-1.787,6.624
6.663,7.983,0.039,6.626
5.905,8.365,1.312,6.628
5.858,8.778,1.607,6.629
3.679,7.799,0.934,6.631
1.469,7.384,-1.689,6.724
2.418,7.909,-2.378,6.726
1.893,7.747,-2.033,6.732
0.476,7.838,-3.656,6.734
0.322,7.911,-4.522,6.735
-3.64,5.764,-5.855,6.824
-2.126,6.409,-3.67,6.826
-3.025,7.73,-4.243,6.828
-4.174,7.291,-5.13,6.829
-2.502,6.879,-5.626,6.831
-2.58,5.356,-7.308,6.924
-4.26,6.952,-6.436,6.934
-6.42,5.984,-7.312,6.942
-3.66,4.692,-9.756,6.945
-1.392,1.869,-11.223,7.028
-4.022,3.659,-10.334,7.03
-5.622,1.159,-10.134,7.031
-4.467,1.111,-8.499,7.033
-3.825,1.958,-7.924,7.035
-5.162,-1.956,-8.812,7.124
-5.571,-3.017,-7.834,7.126
-5.519,-3.202,-7.604,7.128
-4.114,-3.011,-9.723,7.129
-3.486,-3.849,-10.797,7.131
-4.428,-5.232,-10.892,7.224
-4.219,-4.555,-12.128,7.226
-2.757,-4.864,-10.885,7.228
-1.279,-4.67,-9.719,7.229
-0.521,-3.13,-8.981,7.235
-2.72,-2.538,-8.258,7.324
-2.957,-1.935,-7.692,7.334
-2.243,-2.165,-7.908,7.336
-0.933,-3.318,-8.551,7.339
0.059,-3.576,-9.117,7.341
0.543,-2.635,-9.492,7.425
0.376,-1.517,-9.941,7.428
0.711,-1.409,-10.198,7.43
1.925,-1.139,-10.914,7.431
2.617,-1.841,-10.424,7.433
1.688,-5.482,-11.212,7.524
2.043,-6.231,-11.157,7.526
1.298,-3.38,-9.702,7.528
0.498,-0.78,-8.402,7.529
-0.376,-1.535,-8.676,7.531
-2.1,-2.724,-8.938,7.624
-1.9,-2.314,-9.939,7.626
-0.9,-1.47,-9.803,7.628
-0.2,-1.587,-9.371,7.629
0.4,-2.176,-9.762,7.631
0.3,-2.294,-9.841,7.724
0.2,-2.156,-9.664,7.725
0.2,-2.764,-9.644,7.729
0.1,-2.666,-9.663,7.731
0.2,-2.0,-9.9,7.736
0.3,-1.647,-9.665,7.825
0.5,-1.352,-9.725,7.827
0.2,-1.666,-9.763,7.829
-0.4,-2.019,-9.488,7.831
-0.2,-1.725,-9.548,7.838
0.0,-0.979,-9.392,7.925
0.0,-1.018,-9.078,7.927
-0.4,-2.195,-9.35,7.928
-0.3,-2.413,-10.429,7.934
-0.1,-2.295,-10.35,7.936
0.1,-1.96,-9.704,8.028
0.0,-1.646,-9.155,8.03
0.0,-1.979,-9.292,8.032
-0.2,-2.628,-9.977,8.033
-0.2,-2.353,-10.135,8.043
-0.3,-1.843,-9.626,8.125
0.0,-1.411,-9.509,8.131
-0.1,-1.685,-9.351,8.133
-0.1,-2.058,-9.684,8.134
0.0,-1.686,-9.861,8.136
0.1,-1.549,-9.685,8.225
0.2,-1.549,-9.685,8.227
0.1,-1.568,-9.783,8.229
0.2,-1.96,-9.704,8.23
0.3,-1.96,-9.704,8.237
0.2,-1.666,-9.763,8.326
0.1,-1.686,-9.861,8.329
0.0,-1.764,-9.744,8.332
0.0,-1.96,-9.704,8.333
0.1,-1.862,-9.724,8.335
-0.1,-1.764,-9.744,8.424
-0.2,-1.843,-9.626,8.426
-0.3,-1.921,-9.508,8.427
-0.2,-1.843,-9.626,8.449
-0.1,-1.627,-9.567,8.452
-0.2,-1.666,-9.763,8.524
-0.1,-1.96,-9.704,8.527
0.0,-2.058,-9.684,8.533
0.0,-1.725,-9.548,8.534
-0.1,-1.627,-9.567,8.625
0.0,-1.666,-9.763,8.628
0.0,-1.745,-9.646,8.63
0.0,-1.843,-9.626,8.632
0.0,-1.941,-9.606,8.634
0.0,-1.862,-9.724,8.724
0.1,-1.764,-9.744,8.726
0.0,-1.745,-9.646,8.727
-0.1,-1.745,-9.646,8.729
0.0,-1.725,-9.548,8.73
-0.1,-1.725,-9.548,8.827
-0.1,-1.764,-9.744,8.829
0.0,-1.764,-9.744,8.831
0.0,-1.647,-9.665,8.841
0.0,-1.823,-9.528,8.842
0.0,-1.843,-9.626,8.925
0.1,-1.666,-9.763,8.928
0.1,-1.745,-9.646,8.93
0.0,-1.843,-9.626,8.932
0.0,-1.862,-9.724,8.937
0.1,-1.764,-9.744,9.024
0.1,-1.745,-9.646,9.025
-0.1,-1.823,-9.528,9.027
0.0,-1.843,-9.626,9.029
0.0,-1.745,-9.646,9.03
0.0,-1.745,-9.646,9.124
-0.1,-1.745,-9.646,9.125
0.0,-1.764,-9.744,9.127
0.0,-1.843,-9.626,9.129
-0.1,-1.941,-9.606,9.13
-0.1,-1.745,-9.646,9.225
0.0,-1.647,-9.665,9.228
0.0,-1.843,-9.626,9.239
0.1,-1.843,-9.626,9.246
0.0,-1.725,-9.548,9.249
0.0,-1.647,-9.665,9.324
0.0,-1.882,-9.822,9.326
0.1,-1.862,-9.724,9.328
0.2,-1.843,-9.626,9.329
0.0,-1.725,-9.548,9.331
-0.1,-1.745,-9.646,9.424
-0.1,-1.745,-9.646,9.427
0.0,-1.725,-9.548,9.428
0.1,-1.843,-9.626,9.436
0.0,-1.862,-9.724,9.437
0.0,-1.666,-9.763,9.525
0.0,-1.745,-9.646,9.529
0.0,-1.843,-9.626,9.536
0.0,-1.843,-9.626,9.538
0.0,-1.745,-9.646,9.539
0.0,-1.764,-9.744,9.624
0.1,-1.941,-9.606,9.634
0.0,-1.843,-9.626,9.635
0.0,-1.725,-9.548,9.642
-0.1,-1.647,-9.665,9.644
0.0,-1.745,-9.646,9.724
0.0,-1.941,-9.606,9.727
0.0,-1.745,-9.646,9.729
0.0,-1.647,-9.665,9.732
0.0,-1.843,-9.626,9.734
0.0,-1.843,-9.626,9.825
0.0,-1.843,-9.626,9.829
0.0,-1.745,-9.646,9.831
0.0,-1.745,-9.646,9.833
0.0,-1.843,-9.626,9.835
0.1,-1.862,-9.724,9.924
0.0,-1.745,-9.646,9.926
-0.1,-1.627,-9.567,9.927
0.0,-1.96,-9.704,9.929
0.1,-1.862,-9.724,9.931
0.1,-1.764,-9.744,10.024
0.1,-1.745,-9.646,10.026
-0.1,-1.725,-9.548,10.027
-0.1,-1.725,-9.548,10.029
0.0,-1.725,-9.548,10.031
0.0,-1.745,-9.646,10.124
0.0,-1.745,-9.646,10.131
0.0,-1.745,-9.646,10.133
0.0,-1.745,-9.646,10.134
0.0,-1.843,-9.626,10.136
0.0,-1.862,-9.724,10.227
0.0,-1.745,-9.646,10.229
0.0,-1.627,-9.567,10.231
0.0,-1.764,-9.744,10.232
0.0,-1.96,-9.704,10.324
0.1,-1.843,-9.626,10.325
0.0,-1.627,-9.567,10.327
-0.1,-1.647,-9.665,10.329
-0.1,-1.843,-9.626,10.33
0.0,-1.745,-9.646,10.423
0.0,-1.725,-9.548,10.425
0.0,-1.745,-9.646,10.427
0.0,-1.862,-9.724,10.428
0.0,-1.862,-9.724,10.43
0.0,-1.843,-9.626,10.524
0.1,-1.745,-9.646,10.529
0.0,-1.725,-9.548,10.531
-0.1,-1.843,-9.626,10.535
0.0,-1.843,-9.626,10.536
0.0,-1.725,-9.548,10.623
0.0,-1.745,-9.646,10.625
0.0,-1.862,-9.724,10.627
0.1,-1.882,-9.822,10.628
0.1,-1.745,-9.646,10.63
0.0,-1.725,-9.548,10.723
0.0,-1.725,-9.548,10.725
-0.1,-1.745,-9.646,10.727
-0.1,-1.862,-9.724,10.729
0.0,-1.862,-9.724,10.738
0.0,-1.745,-9.646,10.823
0.0,-1.745,-9.646,10.825
-0.1,-1.843,-9.626,10.827
0.0,-1.862,-9.724,10.828
0.1,-1.745,-9.646,10.83
0.1,-1.745,-9.646,10.923
0.0,-1.843,-9.626,10.926
0.1,-1.96,-9.704,10.928
0.0,-1.843,-9.626,10.93
0.0,-1.745,-9.646,10.933
0.0,-1.725,-9.548,11.023
0.0,-1.725,-9.548,11.024
0.0,-1.843,-9.626,11.026
0.0,-1.843,-9.626,11.028
0.0,-1.745,-9.646,11.029
0.0,-1.745,-9.646,11.125
0.0,-1.843,-9.626,11.127
0.0,-1.843,-9.626,11.128
0.0,-1.843,-9.626,11.138
0.0,-1.745,-9.646,11.148
0.1,-1.725,-9.548,11.223
0.0,-1.843,-9.626,11.225
0.0,-1.745,-9.646,11.226
0.0,-1.725,-9.548,11.228
0.0,-1.843,-9.626,11.234
0.0,-1.882,-9.822,11.323
0.1,-1.764,-9.744,11.335
0.1,-1.725,-9.548,11.336
-0.1,-1.725,-9.548,11.338
-0.1,-1.647,-9.665,11.34
0.0,-1.666,-9.763,11.424
0.0,-1.862,-9.724,11.426
0.0,-1.823,-9.528,11.428
0.1,-1.745,-9.646,11.43
-0.1,-1.745,-9.646,11.431
0.0,-1.823,-9.528,11.523
0.0,-1.843,-9.626,11.525
0.0,-1.862,-9.724,11.535
0.0,-1.764,-9.744,11.536
0.0,-1.725,-9.548,11.538
0.0,-1.843,-9.626,11.623
0.0,-1.745,-9.646,11.628
0.0,-1.764,-9.744,11.63
0.0,-1.745,-9.646,11.633
0.0,-1.843,-9.626,11.634
-0.1,-1.745,-9.646,11.724
-0.1,-1.823,-9.528,11.725
0.1,-1.647,-9.665,11.727
0.0,-1.745,-9.646,11.732
0.1,-1.862,-9.724,11.734
0.1,-1.941,-9.606,11.823
0.0,-1.843,-9.626,11.825
0.0,-1.725,-9.548,11.826
-0.1,-1.745,-9.646,11.828
0.0,-1.862,-9.724,11.83
0.0,-1.823,-9.528,11.922
0.0,-1.647,-9.665,11.932
0.0,-1.941,-9.606,11.934
0.0,-1.862,-9.724,11.935
0.1,-1.647,-9.665,12.023
0.0,-1.647,-9.665,12.025
0.1,-1.745,-9.646,12.033
0.0,-1.745,-9.646,12.034
0.1,-1.745,-9.646,12.036
0.0,-1.764,-9.744,12.124
0.1,-1.843,-9.626,12.126
-0.1,-1.823,-9.528,12.128
-0.1,-1.843,-9.626,12.129
-0.1,-1.745,-9.646,12.135
-0.1,-1.941,-9.606,12.223
0.0,-1.843,-9.626,12.225
-0.1,-1.862,-9.724,12.226
-0.2,-1.843,-9.626,12.232
0.0,-1.745,-9.646,12.234
0.0,-1.941,-9.606,12.323
0.0,-1.96,-9.704,12.333
-0.1,-1.745,-9.646,12.334
-0.1,-1.647,-9.665,12.336
0.1,-1.705,-9.45,12.337
0.1,-1.823,-9.528,12.424
-0.3,-1.921,-9.508,12.425
-0.4,-1.941,-9.606,12.427
-0.2,-2.039,-9.586,12.432
0.0,-1.882,-9.822,12.434
-0.2,-2.039,-9.586,12.524
-0.3,-2.019,-9.488,12.526
-0.1,-1.803,-9.43,12.528
-0.1,-1.725,-9.548,12.529
-0.1,-1.647,-9.665,12.531
0.0,-1.843,-9.626,12.623
-0.1,-1.823,-9.528,12.624
0.0,-1.901,-9.41,12.63
0.1,-1.882,-9.822,12.631
-0.2,-1.862,-9.724,12.633
0.0,-1.587,-9.371,12.722
-0.1,-2.039,-9.586,12.723
0.0,-1.628,-10.077,12.725
-0.3,-1.588,-9.881,12.727
-0.3,-1.626,-9.057,12.728
0.2,-1.43,-9.097,12.823
0.5,-2.706,-9.859,12.828
0.0,-2.923,-10.428,12.83
-0.7,-2.138,-10.076,12.831
-0.7,-1.902,-9.92,12.833
-0.9,-1.823,-9.528,12.923
-0.8,-2.137,-9.566,12.925
-0.8,-2.156,-9.664,12.926
-0.3,-2.0,-9.9,12.928
-0.7,-1.627,-9.567,12.929
-0.3,-0.94,-9.196,13.023
-0.2,-1.175,-9.352,13.025
-0.8,-1.843,-9.626,13.026
-0.8,-2.059,-10.194,13.028
-0.4,-2.057,-9.174,13.037
0.1,-1.35,-8.195,13.123
0.1,-1.176,-9.862,13.124
-0.8,-1.452,-10.725,13.143
-0.6,-2.55,-10.095,13.145
-0.5,-1.959,-9.194,13.147
-0.4,-0.332,-9.217,13.223
-0.4,-0.215,-9.649,13.224
-0.8,-2.079,-10.292,13.226
-0.9,-2.763,-9.134,13.228
-0.3,-1.881,-9.312,13.229
-0.2,-1.075,-8.352,13.324
0.0,-0.273,-9.433,13.326
-1.1,-1.961,-10.214,13.329
-0.4,-1.822,-9.018,13.337
0.1,-1.548,-9.175,13.341
-0.3,-1.529,-9.587,13.424
0.1,-1.844,-10.136,13.425
-1.1,-0.16,-11.904,13.429
-0.4,-2.353,-10.135,13.444
0.0,-2.236,-10.056,13.446
-0.8,-1.392,-9.921,13.523
0.4,-2.862,-9.624,13.525
0.2,-3.688,-10.681,13.527
0.4,-6.65,-10.695,13.532
-0.1,-5.021,-10.208,13.624
1.0,-3.624,-7.838,13.626
-1.1,-4.843,-9.326,13.628
-3.4,1.887,-7.829,13.63
-2.6,5.278,-8.718,13.631
-1.922,10.182,-7.6,13.723
0.156,9.864,-5.5,13.729
3.314,-0.261,-8.3,13.731
2.69,-8.399,-12.0,13.733
-0.227,4.433,-11.2,13.734
-1.114,6.631,-11.069,13.823
-1.098,-0.09,-10.39,13.825
1.261,1.404,-8.996,13.827
2.124,5.218,-8.582,13.837
1.498,7.49,-8.31,13.841
-1.237,-2.486,-9.186,13.923
-1.796,-0.88,-10.98,13.924
-1.271,2.547,-12.853,13.926
-0.024,1.682,-13.018,13.928
-0.157,2.616,-8.484,13.929
0.071,0.653,-7.447,14.023
-0.327,-1.537,-8.737,14.024
-1.359,1.506,-9.694,14.026
-0.455,1.225,-9.575,14.029
-2.953,1.535,-8.865,14.034
1.6,0.7,-10.0,14.133
1.1,-1.7,-8.7,14.135
1.1,-0.6,-8.5,14.137
1.2,-0.9,-9.9,14.139
0.6,0.1,-10.8,14.141
0.5,0.6,-10.8,14.223
0.8,0.0,-9.1,14.224
1.6,-0.3,-9.7,14.234
1.3,-0.2,-9.7,14.235
1.2,-1.4,-10.2,14.239
0.038,-1.4,-10.924,14.298
-0.432,-0.5,-10.217,14.3
-0.156,-1.1,-9.864,14.301
-1.528,0.0,-9.077,14.303
-1.333,0.3,-9.627,14.308
1.3,-0.9,-9.7,14.449
0.3,-1.7,-9.2,14.45
1.3,-1.1,-9.4,14.452
-0.5,-1.0,-9.7,14.453
0.0,-1.8,-10.5,14.53
-0.2,-1.3,-10.3,14.533
0.9,-1.0,-9.6,14.535
0.6,-1.6,-9.5,14.536
0.2,-1.7,-9.9,14.538
1.2,-1.3,-10.8,14.541
2.0,-1.3,-10.9,14.623
1.7,-2.8,-10.1,14.633
0.9,1.3,-9.4,14.634
-0.5,2.0,-8.6,14.636
1.2,-1.3,-9.8,14.638
-0.88,-1.7,-8.902,14.723
0.393,-0.2,-9.669,14.725
-0.411,1.4,-9.609,14.726
-1.372,0.6,-9.823,14.731
-0.685,-1.1,-9.451,14.733
-0.137,-0.1,-9.766,14.828
-0.647,1.3,-9.765,14.829
-0.608,0.6,-10.079,14.831
-0.45,-0.6,-9.805,14.833
-0.489,-0.2,-9.491,14.834
-0.882,0.5,-9.922,14.923
-0.451,-0.2,-10.315,14.925
-0.431,-0.3,-9.707,14.926
-0.607,-0.1,-9.569,14.928
-0.666,0.1,-9.863,14.929
-0.588,-0.1,-9.981,15.023
-0.666,-0.3,-9.863,15.025
-0.489,0.0,-9.491,15.03
-0.745,0.4,-9.746,15.032
-0.862,0.2,-9.824,15.034
-0.647,0.0,-9.765,15.144
-0.509,0.0,-9.589,15.151
-0.843,0.4,-9.726,15.152
-0.647,0.4,-9.765,15.154
-0.666,-0.1,-9.863,15.156
-0.706,-0.1,-10.059,15.222
-0.745,0.2,-9.746,15.224
-0.647,0.5,-9.765,15.226
-0.47,-0.2,-9.903,15.235
-0.726,-0.2,-10.157,15.237
-0.666,0.1,-9.863,15.298
-0.705,0.5,-9.55,15.3
-0.607,0.0,-9.569,15.302
-0.268,0.1,-6.883,15.303
