gyro_time_list,gyro_x_list,gyro_y_list,gyro_z_list
0.0,0.1,0.0,-0.1
0.002,0.3,0.0,-0.0
0.003,0.4,0.0,0.1
0.005,0.7,0.0,0.1
0.13,0.1,-0.1,-0.0
0.132,0.0,0.2,0.1
0.134,-0.1,0.1,0.0
0.135,-0.1,-0.1,-0.0
0.238,-0.3,0.0,-0.1
0.24,-0.3,-0.2,-0.1
0.241,-0.2,-0.1,-0.0
0.243,-0.2,-0.0,-0.2
0.342,0.0,-0.2,-0.2
0.351,0.2,-0.2,-0.1
0.353,0.1,-0.1,-0.1
0.354,0.0,-0.1,-0.1
0.43,-0.0,-0.0,-0.0
0.432,-0.0,-0.0,0.1
0.434,-0.1,0.0,0.0
0.435,-0.2,-0.0,-0.0
0.524,-0.1,-0.3,-0.6
0.526,-0.0,-0.3,0.1
0.528,-0.1,-0.0,0.1
0.534,-0.2,0.1,0.0
0.626,0.0,-0.0,0.0
0.628,0.1,-0.1,0.0
0.63,0.1,-0.0,0.0
0.631,0.0,0.0,-0.0
0.755,-0.0,0.0,-0.0
0.757,0.0,-0.0,0.0
0.759,0.0,-0.0,-0.0
0.777,-0.0,-0.0,-0.0
0.839,-0.0,-0.0,0.0
0.841,-0.0,-0.0,0.0
0.842,-0.0,-0.0,0.0
0.847,-0.1,-0.0,0.0
0.927,-0.1,-0.0,0.0
0.929,-0.1,-0.0,0.0
0.931,-0.1,-0.1,0.1
1.036,-0.1,-0.0,0.1
1.039,-0.0,-0.1,0.1
1.041,-0.0,-0.1,0.1
1.042,-0.1,-0.1,0.1
1.044,-0.2,-0.0,0.1
1.139,-0.2,-0.1,0.2
1.141,-0.2,-0.1,0.2
1.15,-0.3,-0.1,0.1
1.158,-0.3,0.0,0.1
1.23,-0.4,0.1,-0.0
1.232,-0.4,0.2,-0.0
1.237,-0.4,0.2,0.0
1.238,-0.5,0.3,0.1
1.328,-0.5,0.3,0.6
1.33,-0.7,0.2,0.7
1.332,-1.0,0.3,0.9
1.333,-1.3,0.5,1.0
1.435,-1.5,0.8,1.2
1.437,-1.6,0.8,1.5
1.438,-1.6,0.8,1.7
1.44,-1.6,0.8,2.0
1.537,-1.4,0.4,2.6
1.547,-1.7,0.2,2.6
1.548,-2.3,0.6,2.6
1.55,-2.8,1.0,2.6
1.63,-2.6,1.0,2.5
1.631,-1.9,0.2,3.1
1.633,-2.1,1.4,2.1
1.635,-1.7,0.7,2.2
1.747,-1.6,0.6,1.6
1.749,-1.7,0.7,1.2
1.751,-1.6,0.7,0.7
1.752,-1.2,0.6,0.3
1.807,-0.2,0.0,-0.1
1.809,0.1,-0.2,-0.4
1.81,0.2,-0.2,-0.7
1.813,0.2,-0.1,-0.9
1.941,-0.2,0.0,-1.2
1.943,-0.4,0.2,-1.3
1.953,-0.7,0.4,-1.3
2.029,-0.8,0.6,-1.2
2.039,-0.9,0.9,-0.8
2.041,-0.9,1.3,-0.6
2.042,-0.8,1.7,-0.3
2.044,-0.5,2.1,0.1
2.135,0.2,2.4,1.0
2.137,0.3,2.6,1.4
2.138,0.3,2.7,1.8
2.14,0.0,3.3,1.6
2.229,-0.5,6.9,2.5
2.231,-1.9,3.9,5.2
2.233,-2.9,1.0,2.9
2.235,-4.9,1.9,3.8
2.344,-6.5,1.9,3.4
2.346,-6.6,1.5,2.6
2.347,-5.5,0.8,2.1
2.349,-3.0,0.7,2.3
2.431,-1.1,0.8,1.5
2.432,-1.1,0.1,0.9
2.434,-1.4,-0.1,0.3
2.435,-1.8,-0.4,-0.0
2.533,-2.6,-0.4,-0.4
2.534,-2.9,-0.3,-0.5
2.536,-2.8,-0.1,-0.4
2.537,-2.6,0.1,-0.3
2.645,-1.6,0.5,0.2
2.647,-0.9,0.7,0.5
2.649,-0.3,0.9,0.8
2.687,0.4,1.1,1.0
2.756,2.1,1.5,1.4
2.758,2.8,1.3,1.3
2.76,3.2,1.1,1.0
2.761,3.4,1.2,0.8
2.828,3.3,-0.5,-0.3
2.829,3.0,-1.2,-0.5
2.831,2.7,-1.6,-0.8
2.832,2.4,-1.8,-1.1
2.927,2.0,-2.5,-1.7
2.929,1.8,-3.0,-1.9
2.934,1.4,-2.9,-1.7
3.04,1.3,-2.7,-1.3
3.043,1.1,-2.1,-1.2
3.045,0.4,-1.9,-1.3
3.061,-0.1,-1.7,-1.4
3.126,-0.2,-1.5,-1.6
3.133,-0.3,-1.2,-1.5
3.137,-0.5,-1.0,-1.3
3.139,-0.4,-1.0,-1.3
3.231,-0.2,-0.9,-1.1
3.234,-0.3,-0.6,-0.6
3.236,-0.7,-0.5,-0.3
3.238,-1.2,-0.2,0.0
3.326,-1.9,-0.2,0.4
3.329,-2.5,0.2,1.3
3.331,-2.6,0.5,1.6
3.333,-2.4,1.0,1.9
3.437,-1.5,1.8,1.8
3.445,-0.7,2.3,2.3
3.455,-1.0,2.3,2.0
3.456,-1.4,1.7,2.0
3.53,-1.9,1.7,2.3
3.536,-2.1,0.9,2.5
3.538,-2.0,1.0,2.5
3.54,-1.4,1.0,2.7
3.631,-0.7,1.3,2.6
3.634,0.4,1.6,2.4
3.636,1.1,1.8,2.2
3.641,2.1,1.9,2.1
3.726,2.6,1.9,1.8
3.729,2.9,1.2,0.9
3.731,2.6,-0.3,0.2
3.732,1.8,-1.2,-0.5
3.84,1.4,-1.1,-1.0
3.851,1.6,-1.4,-1.2
3.853,1.9,-3.1,-1.1
3.854,2.4,-3.9,-0.8
3.927,2.4,-4.0,-0.6
3.93,1.8,-3.9,-0.8
3.932,1.8,-3.3,-1.0
3.934,1.3,-2.6,-1.2
4.032,0.5,-2.0,-1.6
4.036,-0.6,-1.3,-1.5
4.037,-0.8,-0.9,-1.3
4.039,-0.7,-0.5,-1.0
4.13,-0.6,-0.3,-0.8
4.133,-0.2,-0.3,-0.4
4.135,-0.0,-0.4,-0.4
4.137,0.2,-0.3,-0.3
4.24,0.4,-0.2,-0.3
4.251,0.7,0.2,-0.2
4.253,0.5,0.5,-0.2
4.254,0.1,0.6,-0.1
4.33,-0.2,0.9,0.0
4.335,-0.0,1.3,0.4
4.336,0.0,1.3,0.6
4.341,-0.0,1.4,0.8
4.432,-0.1,1.5,1.0
4.436,0.3,1.6,1.4
4.437,0.6,1.8,1.5
4.439,1.0,1.7,1.5
4.526,1.3,1.5,1.4
4.533,-0.2,0.6,0.8
4.534,-0.4,-0.0,0.4
4.536,0.0,-0.7,0.1
4.666,0.2,-1.1,-0.2
4.669,-0.8,-2.5,-1.0
4.671,-0.8,-3.3,-1.2
4.729,-0.8,-4.1,-1.8
4.731,-1.0,-3.8,-2.0
4.735,-0.3,-4.5,-2.1
4.736,0.8,-4.8,-2.0
4.828,1.0,-5.4,-1.5
4.83,-2.7,-5.7,-1.8
4.833,-1.8,-6.9,-2.7
4.835,1.4,-4.2,-2.3
4.939,2.7,-2.9,-2.7
4.941,5.4,3.7,2.0
4.944,-6.4,-10.8,-1.7
4.946,-5.9,-13.4,-7.6
5.032,1.1,-19.7,-6.1
5.034,-3.6,3.5,-1.5
5.037,-5.2,7.9,3.4
5.039,3.0,7.0,3.6
5.133,0.6,5.6,2.9
5.135,-0.2,4.0,1.0
5.139,-3.3,1.8,1.7
5.141,-1.4,7.3,0.3
5.234,-2.3,3.9,3.1
5.236,-2.8,2.3,3.8
5.24,0.9,0.0,-0.6
5.241,0.1,-0.7,-1.6
5.34,-1.3,-0.4,-1.7
5.341,-1.1,-1.6,-1.9
5.345,-1.6,0.9,-0.5
5.354,1.0,1.4,0.9
5.427,2.8,0.8,1.2
5.428,1.5,0.2,0.6
5.432,-0.0,-0.1,0.2
5.433,0.1,-0.8,-0.0
5.53,-0.4,-0.9,-0.5
5.532,-0.6,-0.8,-0.8
5.535,-1.3,-0.3,-1.0
5.537,-1.2,-0.4,-1.5
5.63,-1.3,-0.7,-2.0
5.632,-1.0,-0.9,-2.1
5.635,1.5,-1.9,-2.7
5.637,1.6,-1.0,-1.5
5.818,2.2,-1.1,-1.3
5.82,2.2,-1.0,-1.1
5.831,1.4,-0.6,-0.6
5.839,1.0,-0.2,-0.4
5.875,0.6,0.1,-0.1
5.876,0.6,0.2,-0.0
5.88,0.6,-0.1,-0.1
5.881,0.2,-0.2,-0.0
5.883,-0.3,-0.1,0.1
5.962,-0.5,0.2,0.2
5.966,-0.8,0.7,0.3
5.97,-0.8,0.8,0.4
6.033,-0.8,0.8,0.4
6.035,-0.6,0.7,0.3
6.039,-0.1,0.3,0.1
6.043,0.2,0.2,0.1
6.133,0.3,0.0,0.1
6.135,0.5,0.0,0.0
6.146,0.4,0.1,0.2
6.147,0.3,0.1,0.1
6.231,0.2,0.0,0.1
6.233,0.1,-0.0,0.0
6.236,-0.2,-0.3,-0.2
6.334,-0.3,-0.3,-0.3
6.336,-0.4,-0.2,-0.2
6.338,-0.5,-0.1,-0.2
6.341,-0.4,0.0,-0.1
6.429,-0.2,0.1,-0.0
6.431,-0.1,0.1,0.0
6.433,0.1,0.0,0.0
6.437,0.3,-0.0,0.1
6.541,0.4,0.0,0.1
6.543,0.4,0.0,0.1
6.552,0.4,0.0,0.1
6.567,0.2,-0.0,0.1
6.629,0.0,-0.1,-0.0
6.63,-0.1,-0.0,-0.0
6.632,-0.2,0.0,-0.0
6.635,-0.2,0.1,0.0
6.731,-0.2,0.1,-0.0
6.736,-0.2,0.1,-0.0
6.738,-0.1,0.0,-0.0
6.741,0.0,-0.0,-0.0
6.83,0.1,-0.0,0.0
6.831,0.2,0.0,0.0
6.833,0.2,0.1,0.1
6.836,0.2,0.1,0.1
6.934,0.1,0.0,0.0
6.953,-0.0,0.0,0.0
6.954,-0.1,-0.0,-0.0
6.959,-0.3,-0.0,-0.0
7.029,-0.4,-0.0,-0.0
7.031,-0.4,-0.1,-0.0
7.034,-0.4,-0.1,-0.0
7.038,-0.2,-0.1,-0.0
7.133,-0.1,-0.1,-0.0
7.135,-0.0,-0.1,-0.0
7.136,0.0,-0.1,-0.1
7.139,0.1,-0.1,-0.1
7.23,0.0,-0.1,-0.0
7.232,0.0,-0.0,-0.0
7.233,-0.0,0.0,-0.0
7.236,-0.1,0.1,0.0
7.343,-0.1,0.1,0.0
7.344,-0.1,0.0,0.0
7.346,-0.1,-0.0,0.0
7.349,-0.1,-0.1,-0.0
7.433,-0.1,-0.1,-0.1
7.435,0.0,-0.1,-0.0
7.436,0.1,-0.0,-0.0
7.439,0.1,-0.0,-0.0
7.525,0.1,0.0,-0.0
7.526,0.0,0.0,0.0
7.528,0.0,0.0,0.0
7.536,-0.0,0.0,0.0
7.633,-0.0,0.0,0.0
7.64,0.0,0.0,0.0
7.642,0.1,0.0,0.1
7.653,0.2,-0.0,0.1
7.728,0.2,-0.1,0.1
7.73,0.1,-0.1,0.1
7.731,-0.0,-0.1,0.1
7.766,-0.1,0.0,0.1
7.825,-0.1,-0.0,0.1
7.826,-0.0,0.0,0.2
7.828,-0.0,0.1,0.2
7.834,-0.3,0.0,-0.0
7.924,-0.4,0.0,-0.1
7.926,-0.4,-0.1,-0.2
7.927,-0.2,-0.2,-0.3
8.041,-0.2,-0.4,-0.4
8.042,-0.2,-0.4,-0.5
8.044,-0.0,-0.3,-0.5
8.045,0.2,-0.3,-0.4
8.132,0.3,-0.2,-0.1
8.133,0.3,-0.1,-0.0
8.135,0.3,0.0,0.1
8.137,0.3,0.1,0.2
8.229,-0.0,0.2,0.2
8.23,-0.3,0.2,0.3
8.239,-1.1,0.3,0.2
8.241,-3.1,0.5,-0.0
8.328,-4.2,0.6,0.3
8.329,-1.5,-0.4,0.6
8.331,1.0,-0.2,0.5
8.337,1.5,0.7,0.2
8.434,-0.2,-0.2,0.8
8.435,-2.6,0.1,1.2
8.437,-2.6,2.2,-1.6
8.456,-1.3,1.2,-1.3
8.524,0.2,0.2,0.3
8.53,-0.3,0.5,-0.9
8.531,0.1,-0.2,-1.2
8.538,-0.0,0.2,-1.5
8.635,4.1,1.9,0.4
8.637,7.7,0.5,-1.3
8.639,7.0,-1.3,-2.6
8.641,3.2,-0.7,-0.7
8.758,3.4,0.2,-1.3
8.76,5.2,-0.2,-0.7
8.762,4.6,-0.3,-0.6
8.763,3.9,-0.1,-0.7
8.847,5.9,0.8,-2.8
8.849,4.9,5.2,-5.8
8.863,7.4,10.8,2.7
8.864,9.1,-2.6,-0.2
8.924,3.8,-0.9,2.7
8.926,2.3,-1.9,1.0
8.928,2.4,-1.9,1.5
8.929,3.5,-3.2,1.8
9.037,4.7,-1.8,0.8
9.038,4.6,-0.2,0.2
9.04,5.3,0.4,-0.2
9.042,3.4,-0.2,-0.3
9.124,0.6,0.3,-0.9
9.126,0.2,0.8,-1.2
9.127,-0.1,0.6,-1.1
9.129,-0.2,0.2,-0.1
9.235,-1.3,-1.4,1.1
9.252,-3.2,-0.6,1.3
9.253,-3.5,-0.2,-0.1
9.255,-2.8,0.3,-0.6
9.366,-1.8,0.0,-0.1
9.367,-1.5,-0.9,0.3
9.372,0.0,0.7,-0.6
9.373,-1.2,-0.8,-0.1
9.441,-0.3,-0.8,0.9
9.442,-0.4,-0.4,0.8
9.453,-1.0,-0.3,1.1
9.456,-1.2,-0.0,1.1
9.524,-0.8,0.7,1.4
9.528,-0.5,0.3,1.5
9.532,-0.5,-0.1,1.9
9.533,-0.3,0.0,1.8
9.643,-0.1,0.2,1.1
9.646,-0.3,0.4,0.9
9.648,-0.5,0.4,0.6
9.65,-0.7,0.0,0.2
9.759,-0.4,-0.1,-0.0
9.761,-0.3,-0.1,-0.5
9.762,-0.5,-0.4,-0.6
9.764,-1.9,0.5,-2.6
9.836,0.5,0.2,-1.8
9.837,-0.2,0.8,-2.4
9.839,-0.1,0.4,-2.4
9.841,-0.2,1.3,-1.0
9.939,1.4,-0.3,1.0
9.942,0.6,-0.9,0.9
9.944,0.1,-0.5,0.0
9.947,-0.0,-0.1,-0.3
10.029,0.0,-0.2,0.0
10.03,-0.3,-0.4,0.1
10.032,-0.5,-0.2,0.1
10.034,-0.5,0.1,-0.2
10.125,-0.1,-0.5,0.1
10.127,0.2,-0.4,0.4
10.129,0.4,-0.2,0.1
10.131,0.2,0.0,-0.1
10.225,0.1,-0.3,0.1
10.231,0.1,-0.0,0.3
10.233,0.1,0.2,-0.1
10.234,-0.1,0.2,-0.2
10.34,0.1,-0.0,0.2
10.341,0.1,0.2,0.0
10.348,0.1,0.3,-0.2
10.359,0.2,0.2,-0.1
10.426,0.4,0.0,0.2
10.427,0.3,0.3,-0.0
10.429,0.3,0.3,-0.3
10.431,0.2,0.4,0.1
10.529,0.2,-0.7,-0.4
10.534,-0.1,-0.6,-0.4
10.536,-0.0,-0.2,-0.7
10.537,0.4,-0.3,0.1
10.627,0.3,-0.7,0.9
10.628,0.4,-0.6,1.5
10.634,0.3,-0.2,1.7
10.638,0.1,0.1,1.4
10.751,0.4,0.3,1.0
10.753,0.6,0.5,1.0
10.773,0.5,0.5,0.6
10.774,-0.4,0.3,-0.9
10.834,-1.3,-0.9,-0.6
10.838,1.1,0.6,-0.5
10.84,-0.8,0.7,-1.6
10.841,-0.4,0.5,-0.9
10.926,1.3,0.2,0.8
10.927,1.0,-0.5,0.8
10.929,1.5,-0.1,0.1
10.931,1.8,-0.0,0.0
11.043,1.5,-0.6,-0.2
11.044,-1.2,-0.0,-2.4
11.046,-0.0,0.0,-0.2
11.047,-0.2,0.6,0.7
11.137,-0.6,-0.1,1.8
11.148,-0.3,0.5,1.8
11.231,-0.4,0.6,1.4
11.232,-0.2,1.1,0.6
11.236,-0.0,0.3,1.3
11.241,0.1,-0.1,0.9
11.242,-0.0,0.1,0.2
11.299,-0.3,0.1,0.2
11.302,-0.4,-0.4,0.6
11.304,-0.3,-0.3,0.4
11.31,-0.3,-0.1,0.2
11.43,-0.6,-0.2,0.1
11.433,-2.5,-0.8,-3.8
11.44,-1.3,0.6,1.8
11.537,0.6,-0.8,-2.1
11.544,-0.7,-0.0,-1.6
11.559,0.5,0.0,-0.2
11.56,0.4,-0.4,0.7
11.562,-0.1,-0.4,0.1
11.627,-0.2,-0.2,-0.2
11.631,0.0,-0.0,-0.1
11.634,0.1,-0.2,0.0
11.636,-0.1,-0.2,0.1
11.738,-0.0,-0.0,-0.1
11.741,-0.0,-0.1,-0.1
11.751,0.1,-0.1,0.1
11.752,0.1,-0.1,0.0
11.824,0.1,-0.1,-0.0
11.828,0.1,-0.2,0.1
11.833,0.1,-0.1,0.0
11.838,0.1,0.0,0.0
11.938,0.1,0.1,-0.0
11.949,0.1,0.0,-0.0
11.963,0.1,-0.1,0.1
11.965,0.1,-0.0,0.1
12.031,0.1,0.1,0.0
12.034,-0.0,0.1,-0.1
12.036,0.0,0.1,0.0
12.041,-0.0,0.3,-0.1
12.126,-0.2,0.4,-0.2
12.129,-0.1,0.2,0.0
12.131,0.1,-0.0,0.0
12.133,0.2,-0.0,0.0
12.229,0.1,-0.0,-0.1
12.232,0.1,0.1,-0.3
12.234,0.3,0.1,-0.1
12.235,0.3,0.3,-0.0
12.337,-0.1,0.4,-0.9
12.345,-0.4,0.4,0.2
12.347,-0.3,-0.1,0.6
12.348,-0.2,-0.4,0.5
12.427,-0.2,-0.1,0.5
12.43,-0.2,-0.1,0.7
12.432,-0.1,-0.1,0.4
12.439,0.0,-0.1,0.2
12.523,0.1,-0.1,0.1
12.527,0.1,0.0,-0.2
12.529,-0.0,0.2,-0.4
12.531,-0.3,0.2,-0.5
12.636,-0.3,-0.0,-0.3
12.639,-0.2,0.1,0.0
12.646,0.0,-0.1,0.4
12.655,0.1,-0.3,0.4
12.728,0.1,-0.2,0.4
12.736,0.3,-0.0,0.4
12.737,0.4,0.1,0.3
12.739,0.2,0.2,0.1
12.827,0.3,0.5,-0.2
12.83,-1.2,-2.1,-1.4
12.832,0.7,0.6,0.3
12.833,0.8,0.3,0.1
12.952,1.0,-0.2,0.1
12.956,1.8,0.0,0.2
12.957,1.6,-0.6,-0.9
13.041,2.5,-1.0,-1.0
13.043,2.4,0.1,0.5
13.046,0.2,-0.4,-0.3
13.056,0.1,0.4,-0.7
13.064,0.2,0.8,-0.8
13.066,0.1,1.0,-0.7
13.127,-0.3,-0.5,0.0
13.13,-0.5,-0.4,-0.3
13.228,-0.8,-0.5,-0.3
13.229,-1.0,-0.5,-0.1
13.233,-0.9,-0.4,0.3
13.235,-0.9,-0.7,0.6
13.329,-0.8,-0.9,1.0
13.33,-0.9,-0.7,1.0
13.334,-0.9,-0.4,1.0
13.336,-0.8,-0.1,1.0
13.412,-0.7,0.3,0.5
13.414,-0.7,0.6,0.4
13.425,-0.7,0.8,0.4
13.427,-0.5,0.7,0.3
13.529,-0.2,0.6,0.0
13.53,-0.1,0.3,0.1
13.536,0.0,-0.2,0.1
13.626,-0.0,-0.2,-0.1
13.632,0.0,-0.1,-0.1
13.634,0.0,-0.1,-0.0
13.637,-0.0,-0.1,-0.1
13.639,0.0,-0.1,-0.1
13.733,-0.0,-0.2,0.1
13.735,-0.1,-0.2,0.1
13.738,-0.2,-0.1,-0.1
13.74,-0.1,-0.1,0.0
13.835,-0.0,-0.1,0.1
13.837,-0.1,-0.0,0.1
13.849,-0.1,0.1,0.1
13.851,-0.1,-0.0,0.0
13.932,-0.1,0.0,0.0
13.934,-0.1,0.0,0.1
13.938,-0.0,0.0,0.1
13.939,-0.0,-0.0,0.1
14.03,-0.1,0.1,0.1
14.035,-0.1,0.1,0.1
14.038,-0.1,0.0,0.0
14.04,-0.1,0.0,-0.1
14.125,-0.1,-0.1,-0.2
14.127,-0.2,-0.1,-0.3
14.134,-1.3,-0.5,-2.1
14.136,-1.0,-0.3,-0.8
14.232,-0.1,0.0,-1.1
14.241,-0.5,-0.4,-1.4
14.252,-0.1,0.3,-0.3
14.254,0.0,0.1,-0.0
14.33,-0.9,1.0,1.4
14.334,-0.7,-0.5,-0.7
14.337,1.2,-0.4,-0.1
14.339,1.3,-0.6,0.1
14.434,0.7,-0.4,-1.1
14.435,-0.5,0.7,-1.3
14.439,0.6,-0.9,-0.6
14.44,0.6,-0.7,0.1
14.528,1.8,0.5,0.9
14.53,1.7,-0.3,-0.9
14.536,0.2,0.1,-0.5
14.679,0.4,1.0,-0.7
14.694,0.8,1.3,-0.2
14.696,0.1,1.4,0.6
14.699,-0.3,0.8,1.1
14.75,-0.4,0.7,0.9
14.751,-0.4,0.7,1.0
14.753,-0.5,0.4,1.1
14.759,-0.2,0.0,0.4
14.824,-0.2,0.1,0.4
14.825,-0.4,0.3,0.3
14.827,-0.4,0.2,0.3
14.83,-0.2,0.2,0.3
14.943,-0.1,-0.3,0.5
14.945,0.0,-0.1,0.4
14.946,-0.1,0.2,0.3
14.949,-0.3,0.1,0.4
15.031,-0.2,0.2,0.3
15.032,-0.1,-0.0,0.2
15.034,-0.1,-0.3,0.2
15.037,0.0,-0.4,-0.1
15.13,-0.0,-0.6,-0.4
15.134,0.3,-1.0,-0.7
15.135,0.2,-1.3,-0.8
15.138,-0.5,-1.5,-1.2
15.226,-1.6,-0.5,-1.9
15.228,-0.4,0.1,-0.0
15.229,0.4,-0.1,0.2
15.232,0.1,-0.1,-0.1
15.338,0.1,0.1,-0.2
15.34,0.0,0.6,-0.1
15.341,0.3,0.9,0.2
15.353,0.4,0.8,0.6
15.457,0.2,0.7,0.6
15.458,0.1,0.3,0.5
15.46,-0.0,0.2,0.6
15.463,-0.3,0.2,0.5
15.521,-0.2,0.3,0.3
15.523,-0.2,0.1,0.2
15.524,-0.2,0.0,0.1
15.626,-0.2,0.0,0.1
15.628,-0.1,-0.1,0.1
15.661,-0.1,-0.1,0.1
15.662,-0.1,-0.2,0.1
15.668,-0.3,-0.5,-0.4
15.747,-0.3,-0.7,-0.6
15.748,-0.2,-0.7,-0.4
15.75,-0.1,-0.9,-0.3
15.761,-0.4,-1.2,-0.8
15.827,-0.7,0.7,-0.7
15.828,-0.2,0.5,-0.5
15.83,-0.0,0.0,0.2
15.833,0.3,-0.5,-0.3
15.924,0.5,-0.4,0.0
15.925,0.2,-0.4,-0.1
15.93,0.1,-0.3,-0.0
15.934,-0.1,-0.1,0.1
16.023,-0.4,0.0,0.0
16.025,-0.7,0.1,-0.0
16.026,-0.8,0.1,-0.0
16.029,-0.5,0.1,0.0
16.136,-0.3,0.1,-0.0
16.138,-0.0,0.0,-0.1
16.155,0.2,-0.0,-0.1
16.159,0.3,-0.1,-0.0
16.226,0.1,-0.1,-0.0
16.234,0.0,-0.0,-0.0
16.235,-0.0,0.0,-0.0
16.332,0.0,0.0,-0.0
16.334,0.1,0.0,-0.1
16.336,0.1,-0.0,-0.1
16.338,0.1,-0.0,-0.1
