gyro_time_list,gyro_x_list,gyro_y_list,gyro_z_list
0.0,0.5,0.5,-0.1
0.001,0.4,0.1,-0.1
0.003,0.3,0.0,-0.1
0.005,0.1,0.2,0.1
0.109,-0.3,0.0,0.2
0.111,-0.3,-0.1,-0.0
0.112,-0.0,-0.3,-0.1
0.114,-0.0,0.0,0.0
0.204,0.0,-0.0,0.0
0.206,0.0,-0.0,0.1
0.208,0.0,-0.0,0.0
0.21,0.0,-0.0,0.1
0.319,0.0,-0.0,0.0
0.321,0.0,-0.0,0.0
0.323,0.0,-0.0,0.0
0.33,0.0,0.0,0.0
0.4,0.0,0.0,0.0
0.406,0.0,0.0,0.0
0.408,-0.0,0.0,0.0
0.41,0.0,0.0,0.0
0.506,-0.1,0.0,-0.0
0.511,-0.1,0.0,0.0
0.513,-0.2,0.0,-0.0
0.514,-0.3,0.1,-0.0
0.6,-0.6,0.3,-0.1
0.607,-0.8,0.3,-0.2
0.608,-1.2,0.5,-0.2
0.61,-1.6,0.8,-0.2
0.725,-2.3,1.3,0.1
0.727,-2.6,1.4,0.5
0.728,-2.9,1.4,1.0
0.74,-2.7,1.3,1.4
0.806,-1.1,1.6,2.0
0.808,-1.4,2.1,2.0
0.809,-1.9,2.2,1.8
0.811,-1.7,2.1,1.9
0.902,-2.5,1.8,1.8
0.904,-3.2,1.7,1.9
0.905,-3.7,1.6,2.0
0.907,-3.6,1.4,2.1
1.001,-3.4,1.2,2.0
1.003,-3.7,1.0,1.9
1.005,-3.9,0.9,1.9
1.006,-3.8,0.8,1.9
1.133,-2.8,0.8,2.0
1.135,-2.1,0.8,2.1
1.146,-1.4,0.8,2.1
1.155,-0.7,0.9,2.0
1.205,0.2,0.9,1.8
1.207,0.2,0.9,1.6
1.212,-0.0,0.9,1.5
1.213,-0.2,0.9,1.3
1.301,-0.6,0.8,0.9
1.303,-0.7,0.7,0.8
1.304,-0.7,0.5,0.6
1.306,-0.6,0.4,0.5
1.41,-0.3,0.2,0.4
1.411,-0.2,0.1,0.3
1.413,-0.1,0.1,0.2
1.414,0.1,0.1,0.1
1.52,0.4,0.2,-0.1
1.531,0.7,0.2,-0.2
1.532,0.9,0.2,-0.3
1.534,1.0,0.2,-0.3
1.601,1.1,0.1,-0.5
1.603,1.2,0.0,-0.5
1.604,1.1,-0.0,-0.6
1.612,1.1,-0.1,-0.6
1.704,0.8,-0.2,-0.6
1.708,0.7,-0.3,-0.7
1.71,0.6,-0.4,-0.7
1.712,0.5,-0.4,-0.7
1.805,0.5,-0.4,-0.6
1.806,0.5,-0.3,-0.5
1.808,0.5,-0.3,-0.5
1.809,0.4,-0.2,-0.4
1.931,0.3,-0.0,-0.2
1.934,0.3,0.0,-0.2
1.936,0.3,0.0,-0.1
1.937,0.2,0.1,-0.0
2.011,0.1,0.2,0.1
2.012,0.0,0.3,0.2
2.014,-0.0,0.4,0.3
2.015,-0.1,0.5,0.3
2.105,-0.2,0.6,0.4
2.107,-0.3,0.6,0.4
2.108,-0.3,0.6,0.5
2.11,-0.2,0.8,0.7
2.217,0.3,1.2,1.2
2.22,0.5,1.3,1.4
2.229,0.6,1.2,1.3
2.231,0.6,1.1,1.1
2.304,0.2,0.7,0.5
2.306,-0.0,0.4,0.3
2.308,-0.0,0.2,0.1
2.313,0.1,0.1,0.0
2.405,0.3,-0.1,0.0
2.41,0.2,-0.1,0.0
2.412,0.0,-0.1,-0.0
2.413,-0.1,-0.2,-0.0
2.499,-0.1,-0.2,-0.0
2.5,-0.1,-0.3,-0.0
2.502,-0.1,-0.3,-0.1
2.617,-0.2,-0.3,-0.1
2.621,-0.2,-0.4,-0.2
2.623,-0.1,-0.3,-0.2
2.624,-0.1,-0.3,-0.1
2.703,-0.1,-0.2,-0.0
2.709,-0.1,-0.1,0.1
2.711,-0.2,-0.0,0.1
2.712,-0.3,-0.0,-0.1
2.802,-0.3,-0.1,-0.2
2.809,-0.1,-0.3,-0.5
2.81,0.1,-0.5,-0.6
2.812,0.2,-0.7,-0.7
2.899,0.3,-1.0,-0.8
2.907,-0.1,-1.3,-1.0
2.908,-0.3,-1.3,-1.1
2.91,-0.5,-1.2,-1.2
3.014,-0.4,-1.0,-1.3
3.017,-0.0,-0.8,-1.3
3.019,0.1,-0.8,-1.2
3.044,0.1,-0.7,-1.0
3.099,-0.0,-0.7,-0.8
3.106,-0.4,-0.4,-0.3
3.109,-0.6,-0.2,-0.1
3.111,-0.7,-0.0,0.2
3.205,-0.7,0.2,0.5
3.208,-0.5,0.8,1.1
3.21,-0.3,1.1,1.5
3.211,0.0,1.4,1.8
3.299,0.3,1.7,2.0
3.303,0.2,1.9,2.1
3.304,-0.1,1.8,1.9
3.306,-0.4,1.5,1.6
3.41,-0.8,1.2,1.2
3.42,-0.2,0.6,0.8
3.431,0.2,0.5,0.8
3.433,0.6,0.3,0.8
3.502,1.0,-0.0,0.6
3.506,1.3,-0.6,-0.0
3.507,1.1,-0.9,-0.3
3.509,0.9,-1.1,-0.5
3.603,0.7,-1.3,-0.8
3.607,0.4,-1.5,-1.3
3.611,0.3,-1.5,-1.4
3.613,0.3,-1.5,-1.5
3.7,0.3,-1.5,-1.5
3.703,0.6,-1.3,-1.2
3.704,0.8,-1.1,-1.0
3.706,0.8,-0.9,-0.8
3.815,0.7,-0.7,-0.7
3.834,0.0,-0.6,-0.5
3.835,-0.4,-0.5,-0.4
3.837,-0.6,-0.4,-0.3
3.899,-0.7,-0.3,-0.2
3.902,-0.7,0.2,0.1
3.911,-0.5,0.5,0.2
3.913,-0.3,0.9,0.4
3.999,0.0,1.3,0.6
4.006,0.5,2.1,0.8
4.008,0.4,2.2,0.9
4.01,-0.0,2.2,1.0
4.103,-0.4,2.1,1.1
4.106,-1.0,1.9,1.2
4.108,-1.2,1.7,1.1
4.11,-1.3,1.4,0.8
4.217,-3.7,0.2,0.6
4.23,-3.1,-0.6,-0.6
4.231,-0.9,-0.8,-0.2
4.303,1.3,-0.8,0.0
4.305,2.0,-0.8,0.2
4.308,0.9,-1.0,-0.3
4.313,-0.4,-1.2,-0.7
4.405,-1.4,-1.3,-0.9
4.407,-2.0,-1.4,-1.0
4.411,-1.9,-1.3,-0.9
4.413,-1.6,-1.2,-0.8
4.504,-1.2,-1.3,-0.7
4.505,-1.1,-1.5,-0.6
4.516,-0.7,-1.6,-0.5
4.518,-0.7,-1.5,-0.6
4.608,-0.5,-1.6,-0.6
4.618,-0.0,-1.7,-0.4
4.629,0.4,-1.6,0.0
4.63,0.8,-1.3,0.2
4.702,1.1,-1.0,0.2
4.704,1.4,-0.8,0.1
4.71,2.6,-0.0,-0.3
4.712,2.8,0.1,-0.3
4.799,2.6,-0.1,-0.3
4.8,2.6,-0.2,-0.2
4.803,2.0,-0.6,-0.4
4.809,1.4,-0.9,-0.4
4.945,0.9,-0.8,-0.6
4.947,0.3,-0.7,-0.7
4.95,-0.7,-0.6,-0.8
4.952,-1.0,-0.2,-0.9
5.038,-0.6,0.0,-0.9
5.04,0.2,-0.1,-0.8
5.043,1.8,-1.0,-0.4
5.048,2.0,-1.2,-0.7
5.099,1.1,-1.5,-1.4
5.1,0.2,-1.3,-1.6
5.108,0.4,-0.6,-1.2
5.11,0.4,-0.7,-1.0
5.204,0.0,-0.6,-1.0
5.205,-0.5,-0.6,-1.1
5.212,-0.5,-1.5,-1.8
5.213,-0.7,-2.4,-1.6
5.314,-0.7,-1.6,-0.6
5.316,0.1,-0.3,0.7
5.319,2.5,6.0,2.6
5.335,1.9,-7.6,-0.3
5.401,-3.4,-4.3,-3.2
5.403,-4.4,-7.6,-6.0
5.406,3.0,-2.8,-1.6
5.408,1.8,5.5,1.6
5.505,-1.5,-1.7,-0.3
5.506,-0.4,-0.4,0.3
5.511,1.4,2.0,1.6
5.513,0.2,2.7,1.4
5.603,-0.6,-0.6,0.1
5.605,-0.3,0.3,0.2
5.61,-0.9,1.9,0.4
5.612,-0.7,0.6,0.1
5.71,-0.2,0.4,0.2
5.717,0.2,0.1,0.1
5.731,0.5,-0.1,0.0
5.732,0.5,-0.4,-0.1
5.802,-0.0,-0.8,-0.3
5.807,-0.2,-0.2,-0.3
5.81,0.2,-0.3,-0.3
5.811,0.0,-0.0,-0.4
5.9,-0.1,0.2,-0.5
5.901,-0.1,0.1,-0.6
5.907,-0.2,-0.0,-0.6
6.021,-0.2,-0.1,-0.8
6.023,0.1,-0.1,-0.7
6.025,0.1,-0.1,-0.6
6.028,-0.2,-0.0,-0.3
6.111,-0.3,0.0,-0.2
6.112,-0.0,-0.0,-0.0
6.119,0.3,0.0,0.0
6.13,0.1,0.0,0.1
6.198,-0.1,-0.1,0.0
6.2,-0.1,-0.1,0.0
6.201,-0.0,-0.1,0.0
6.211,0.0,-0.1,0.0
6.301,-0.1,-0.1,-0.0
6.303,-0.1,-0.0,-0.0
6.304,-0.1,-0.1,-0.1
6.312,-0.2,-0.0,-0.1
6.401,-0.2,-0.1,-0.1
6.403,-0.1,-0.1,-0.0
6.408,-0.2,-0.2,-0.1
6.411,0.1,-0.1,-0.0
6.518,0.1,-0.2,-0.0
6.519,-0.0,-0.1,-0.0
6.531,-0.1,-0.1,-0.0
6.536,0.0,0.0,0.0
6.603,0.0,0.1,0.1
6.604,-0.1,0.2,0.1
6.606,-0.1,0.3,0.1
6.611,0.1,0.2,0.1
6.703,0.0,0.3,0.1
6.704,-0.1,-0.2,-0.1
6.706,-0.1,0.1,0.0
6.709,0.1,0.1,0.0
6.798,0.0,0.1,0.0
6.805,0.0,0.0,0.0
6.806,0.1,0.1,0.0
6.809,0.0,0.0,0.0
6.917,0.0,0.0,0.0
6.928,0.0,0.0,0.0
6.93,0.0,0.0,0.0
6.933,-0.0,0.0,0.0
7.008,-0.0,0.0,0.0
7.011,0.0,0.0,0.0
7.013,0.0,0.0,0.0
7.017,0.0,0.0,0.0
7.102,0.0,0.0,0.0
7.103,0.0,0.0,0.0
7.11,0.0,0.0,0.0
7.113,0.0,0.0,0.0
7.212,0.0,0.0,0.0
7.214,-0.0,0.0,0.0
7.215,0.0,0.0,0.0
7.218,-0.0,0.0,-0.0
7.302,0.0,0.0,-0.0
7.303,0.0,0.0,0.0
7.304,0.0,-0.0,0.0
7.307,0.0,-0.0,0.0
7.404,0.0,-0.0,0.0
7.405,-0.0,-0.0,0.0
7.407,0.0,-0.2,0.0
7.41,0.0,-0.3,-0.0
7.496,0.1,-0.0,-0.0
7.497,0.0,-0.1,-0.1
7.499,-0.0,-0.1,-0.1
7.612,-0.0,-0.0,-0.0
7.614,0.0,-0.1,-0.0
7.615,-0.0,-0.1,-0.0
7.617,-0.1,-0.1,-0.0
7.727,-0.0,-0.1,-0.0
7.729,0.0,-0.0,-0.0
7.731,0.1,-0.1,-0.0
7.732,0.0,-0.1,-0.0
7.809,-0.0,-0.1,-0.0
7.811,0.0,-0.1,-0.0
7.813,0.0,-0.0,-0.0
7.817,0.1,-0.0,0.0
7.82,0.1,-0.0,-0.0
7.822,0.0,-0.2,-0.0
7.917,0.0,-0.1,-0.0
7.919,0.0,-0.0,0.0
8.041,0.0,0.0,0.0
8.043,-0.0,-0.0,-0.0
8.046,-0.0,0.0,0.0
8.048,-0.0,-0.0,0.0
8.062,0.0,0.1,0.0
8.122,-0.0,0.0,0.0
8.131,-0.0,0.0,0.0
8.133,-0.0,0.0,0.0
8.135,-0.0,0.0,0.0
8.227,0.0,0.0,-0.0
8.229,0.0,-0.0,-0.0
8.23,0.0,0.0,0.0
8.233,0.0,0.0,0.0
8.326,0.0,0.0,0.0
8.328,0.0,0.0,0.0
8.33,0.0,0.0,0.0
8.333,0.0,0.0,0.0
8.443,-0.0,0.0,0.0
8.444,0.0,0.0,0.0
8.456,-0.0,0.0,0.0
8.458,-0.0,0.0,0.0
8.522,0.0,0.0,0.0
8.524,0.0,0.0,-0.0
8.529,0.0,0.0,-0.0
8.533,0.0,0.0,0.0
8.625,0.0,0.0,0.0
8.627,0.0,0.0,0.0
8.628,0.0,0.0,0.0
8.705,0.0,0.0,0.0
8.707,0.0,-0.0,0.0
8.708,0.0,0.0,0.0
8.71,0.0,0.0,0.0
8.713,0.0,0.0,0.0
8.811,0.0,0.0,0.0
8.822,0.0,0.0,0.0
8.823,0.0,0.0,0.0
8.9,-0.0,0.0,0.0
8.902,0.0,0.0,0.0
8.903,0.0,0.0,0.0
8.906,0.0,-0.0,-0.0
9.027,0.0,0.0,0.0
9.028,0.0,-0.0,0.0
9.029,0.0,-0.0,0.0
9.031,0.0,-0.0,0.0
9.137,0.0,-0.0,0.0
9.139,0.0,0.0,0.0
9.141,0.0,-0.0,0.0
9.143,-0.0,-0.0,-0.0
9.152,0.0,-0.0,-0.0
9.222,0.0,0.0,-0.0
9.224,0.0,0.0,-0.0
9.225,0.0,-0.0,-0.0
9.236,-0.0,-0.0,0.0
9.324,0.0,0.0,0.0
9.325,0.0,0.0,0.0
9.331,-0.0,0.1,0.0
9.335,-0.0,0.2,0.1
9.397,0.0,0.2,0.1
9.399,-0.0,0.2,0.0
9.4,-0.0,0.1,0.0
9.403,-0.1,-0.2,-0.1
9.521,-0.1,0.1,0.0
9.523,0.0,0.0,-0.0
9.525,0.0,0.0,0.0
9.661,-0.0,-0.0,-0.0
9.663,0.0,0.0,0.0
9.664,0.0,-0.0,-0.0
9.666,-0.0,0.0,0.0
9.722,0.0,0.0,0.0
9.724,-0.0,-0.0,0.0
9.725,-0.0,0.0,0.0
9.727,0.0,0.0,0.0
9.827,-0.0,0.0,0.0
9.829,-0.0,-0.0,-0.0
9.83,-0.0,-0.0,-0.0
9.832,0.0,0.0,-0.0
9.939,0.0,0.0,-0.0
9.942,0.0,0.0,0.0
9.944,0.0,0.0,0.0
9.946,0.0,0.0,0.0
10.023,0.0,0.0,0.0
10.024,0.0,-0.0,0.0
10.026,0.0,0.0,0.0
10.027,0.0,0.0,0.0
10.136,-0.0,-0.0,0.0
10.138,-0.0,0.0,0.0
10.139,0.0,0.0,0.0
10.14,0.0,0.0,0.0
10.223,-0.0,0.0,-0.0
10.228,0.0,0.0,0.0
10.23,0.0,0.0,0.0
10.232,-0.0,0.0,0.0
10.31,0.1,0.0,0.0
10.313,0.1,-0.0,-0.0
10.316,-0.1,-0.1,-0.1
10.327,-0.1,-0.1,-0.1
10.394,0.0,0.0,0.0
10.396,0.1,0.1,0.1
10.398,0.1,0.1,0.1
10.405,0.1,0.0,0.0
10.529,-0.0,-0.0,-0.0
10.53,-0.0,-0.0,-0.0
10.532,0.0,0.0,-0.0
10.533,0.0,0.0,-0.0
10.631,-0.1,-0.0,-0.0
10.633,-0.1,-0.0,-0.0
10.634,-0.2,0.0,0.0
10.636,0.0,-0.1,-0.0
10.735,0.4,0.1,0.0
10.736,0.3,0.1,0.1
10.747,0.7,0.3,0.2
10.759,0.9,0.5,0.2
10.827,0.3,0.2,0.1
10.828,0.4,0.3,0.2
10.83,0.6,0.3,0.1
10.832,0.6,0.4,0.2
10.922,0.7,0.2,0.0
10.924,0.8,-0.0,0.0
10.925,1.0,0.1,0.1
11.003,1.0,0.1,0.1
11.01,1.1,0.0,0.0
11.012,1.1,0.1,0.1
11.014,1.0,0.1,0.1
11.015,1.0,0.0,0.1
11.132,0.8,0.1,0.1
11.143,0.5,0.0,0.1
11.145,0.6,-0.1,0.0
11.234,0.5,-0.0,0.0
11.237,0.3,-0.0,-0.0
11.242,0.2,-0.1,-0.0
11.244,0.1,-0.2,-0.0
11.245,0.0,-0.0,-0.0
11.324,0.0,-0.2,-0.1
11.33,0.1,-0.2,-0.0
11.331,0.2,-0.1,-0.0
11.333,0.2,-0.3,-0.1
11.428,0.3,-0.4,-0.1
11.432,0.1,-0.3,-0.1
11.434,0.1,-0.2,-0.1
11.436,0.8,-0.1,0.0
11.556,0.6,-0.2,-0.0
11.557,1.1,0.2,-0.2
11.559,1.5,0.1,-0.2
11.561,1.6,-1.1,-1.0
11.624,0.3,-0.3,-0.6
11.626,1.2,-0.5,0.2
11.637,1.4,-2.5,-0.9
11.639,0.8,-1.6,-0.8
11.731,0.1,0.4,0.6
11.733,0.4,1.0,0.8
11.735,0.5,0.3,0.5
11.736,0.1,0.0,0.6
11.866,-0.0,0.3,0.4
11.868,-0.1,0.1,0.2
11.869,0.2,0.0,0.1
11.871,0.2,-0.4,-0.1
11.955,0.9,-0.2,0.2
11.956,1.1,-0.5,0.1
11.958,1.0,-0.4,-0.6
11.964,0.4,-0.1,-0.2
12.024,0.2,0.6,0.6
12.026,0.2,0.3,0.4
12.027,0.5,0.2,0.5
12.029,0.5,0.1,0.7
12.127,0.3,0.3,0.4
12.128,0.2,0.4,0.3
12.13,0.1,0.2,0.4
12.132,0.1,0.1,0.4
12.239,0.0,0.1,0.2
12.241,-0.0,0.0,0.4
12.25,-0.1,-0.1,0.3
12.261,-0.2,-0.0,0.2
12.331,-0.3,0.1,-0.1
12.332,-0.4,0.2,-0.0
12.334,-0.2,0.2,0.0
12.335,-0.2,0.1,0.1
12.427,-0.7,0.3,0.3
12.428,-0.6,0.4,0.3
12.433,-0.7,0.5,-0.5
12.435,-1.0,0.3,-1.2
12.527,-0.9,-1.7,-1.1
12.529,-1.2,-1.0,-1.2
12.53,-1.7,0.7,-0.8
12.532,-0.9,0.3,-0.2
12.639,-0.2,-0.2,-0.2
12.641,-0.2,-0.2,-0.1
12.657,-0.3,-0.3,-0.1
12.659,-0.3,-0.2,-0.1
12.723,-0.0,-0.1,-0.0
12.725,0.2,-0.0,-0.0
12.726,0.3,0.0,-0.0
12.731,0.4,-0.1,-0.0
12.795,0.8,0.1,0.1
12.804,1.1,0.3,0.2
12.81,1.8,0.2,0.0
12.919,2.2,0.3,-0.1
12.922,1.6,0.3,-0.1
12.924,1.2,0.5,-0.1
13.01,0.9,0.6,-0.1
13.019,0.7,0.2,-0.0
13.022,-0.1,0.3,0.0
13.033,0.2,-0.6,0.6
13.035,0.2,-0.7,0.2
13.119,0.3,-0.4,-0.4
13.122,-0.1,0.1,-0.1
13.125,0.1,-0.1,0.1
13.226,0.2,-0.4,0.1
13.228,0.2,-0.4,0.1
13.231,0.3,-0.2,0.2
13.237,0.2,-0.2,0.3
13.238,0.2,-0.3,0.0
13.329,0.0,0.2,0.2
13.332,-0.2,1.2,0.8
13.333,-0.4,1.1,0.7
13.335,-0.4,0.5,0.6
13.423,-0.6,0.8,0.4
13.438,-1.1,0.8,0.1
13.446,-0.9,0.7,0.1
13.448,-0.7,0.4,0.2
13.525,-0.7,0.4,0.3
13.529,-0.6,0.5,0.1
13.532,-0.5,0.4,0.1
13.623,-0.4,0.6,0.1
13.624,-0.3,0.3,0.2
13.627,-0.1,-0.1,0.2
13.635,-0.0,-0.3,0.1
13.73,-0.1,-0.5,-0.4
13.732,-0.1,-0.8,-1.0
13.735,0.1,-1.1,-1.0
13.737,0.1,-1.5,-0.8
13.738,-0.0,-1.8,-1.2
13.835,-0.5,0.6,-0.5
13.848,-0.1,-0.5,-0.0
13.85,-0.1,-0.3,-0.1
13.859,-0.4,0.0,-0.1
13.93,-0.5,-0.3,-0.1
13.933,-0.2,-0.1,-0.1
13.934,-0.0,-0.1,-0.1
13.936,-0.1,-0.0,-0.1
14.026,-0.1,-0.0,-0.1
14.062,-0.0,-0.0,-0.0
14.064,0.0,0.0,-0.0
14.066,-0.0,-0.1,-0.0
14.157,-0.0,-0.0,-0.0
14.16,0.0,-0.0,-0.0
14.162,-0.0,-0.0,-0.0
14.163,-0.0,-0.0,-0.0
14.222,0.0,0.0,-0.0
14.225,0.0,-0.0,-0.0
