gyro_time_list,gyro_x_list,gyro_y_list,gyro_z_list
0.0,1.0,-1.1,-0.6
0.001,0.0,-0.2,-0.8
0.003,0.0,-0.7,-0.5
0.109,0.0,-0.7,0.1
0.112,-0.4,-0.1,-0.0
0.114,-0.8,0.3,-0.1
0.116,-0.8,0.4,-0.1
0.117,-0.4,0.2,-0.1
0.204,-0.1,0.1,-0.4
0.206,-0.1,0.1,-0.5
0.208,-0.1,0.2,-0.6
0.21,-0.1,0.2,-0.4
0.319,-0.3,0.4,0.0
0.322,-0.3,0.6,0.0
0.324,-0.2,0.5,0.1
0.326,-0.2,0.4,0.1
0.404,0.3,0.0,0.0
0.407,0.2,0.1,0.1
0.409,0.3,-0.0,0.2
0.417,0.3,-0.1,0.2
0.509,0.2,-0.1,0.1
0.51,0.0,0.1,0.1
0.512,-0.0,0.1,0.1
0.513,0.0,0.1,0.1
0.584,-0.1,0.3,0.1
0.585,-0.2,0.3,0.2
0.587,-0.2,0.4,0.1
0.589,-0.3,0.5,0.2
0.711,-0.1,0.3,0.1
0.713,0.0,0.3,0.1
0.715,0.1,0.3,0.2
0.813,0.2,0.2,0.3
0.817,0.2,-0.0,0.3
0.818,0.1,0.1,0.3
0.82,-0.2,0.2,0.4
0.821,-0.3,0.2,0.4
0.91,-0.1,0.1,0.1
0.913,-0.1,0.1,0.1
0.914,-0.1,0.1,0.1
0.916,-0.1,0.1,0.2
1.014,-0.1,0.1,0.4
1.015,-0.1,0.0,0.4
1.017,-0.1,-0.2,0.5
1.018,-0.3,-0.3,0.8
1.123,-1.9,0.0,1.7
1.125,-2.8,0.2,1.8
1.141,-3.3,1.1,-0.7
1.142,-5.1,0.9,-2.6
1.209,-6.3,0.4,2.9
1.211,-5.8,1.5,2.5
1.216,-5.9,1.3,2.9
1.217,-6.5,0.9,2.9
1.304,-5.1,1.0,3.6
1.306,-4.5,1.3,4.0
1.308,-5.2,1.4,4.1
1.309,-6.2,1.3,4.1
1.388,-7.8,0.8,4.6
1.389,-8.4,-0.0,4.7
1.391,-9.3,-0.5,4.7
1.393,-9.3,-1.1,4.5
1.518,-4.8,-2.4,4.6
1.529,-2.5,-2.2,4.7
1.616,-0.8,-1.9,4.6
1.618,0.4,-1.5,4.1
1.625,-8.4,-0.9,0.6
1.627,4.0,-0.5,2.6
1.628,2.0,0.8,1.9
1.708,0.4,0.8,0.9
1.714,-0.9,-0.2,0.3
1.716,-0.2,0.2,0.2
1.718,-0.3,0.2,0.1
1.719,-0.8,-0.2,0.2
1.806,-0.6,-0.1,0.2
1.807,-0.3,-0.1,0.1
1.809,-0.2,-0.0,-0.1
1.915,-0.3,0.1,-0.4
1.93,-0.2,0.2,-1.0
1.932,0.6,0.1,-0.9
1.942,1.7,-0.0,-0.6
2.011,3.4,-0.3,-0.6
2.014,0.5,-0.4,-1.2
2.015,-0.9,-0.3,-1.5
2.017,-1.7,-0.0,-1.5
2.108,-1.3,0.0,-1.2
2.111,-0.1,0.1,-1.0
2.112,0.3,0.3,-1.0
2.114,0.7,0.3,-1.0
2.207,1.0,0.2,-1.0
2.21,1.0,0.1,-0.9
2.211,0.9,0.1,-0.9
2.213,0.8,0.0,-0.8
2.324,0.6,0.0,-0.8
2.346,0.0,0.1,-0.7
2.348,-0.1,0.1,-0.6
2.349,-0.3,0.1,-0.5
2.406,-0.3,0.2,-0.3
2.409,-0.2,0.2,0.1
2.411,0.1,0.2,0.3
2.415,0.3,0.3,0.5
2.527,0.5,0.3,0.6
2.531,0.9,0.2,0.7
2.532,1.0,0.3,0.7
2.534,1.2,0.3,0.5
2.621,1.3,0.3,0.3
2.625,2.4,0.5,-0.2
2.626,2.5,0.3,-1.3
2.628,1.9,0.2,-1.7
2.642,1.6,-0.3,-1.9
2.701,-0.0,0.1,-2.4
2.703,-0.6,-0.1,-2.4
2.705,-0.3,0.1,-2.4
2.808,0.3,0.4,-2.7
2.812,0.5,0.7,-3.2
2.813,0.5,0.9,-3.3
2.815,0.7,1.1,-3.4
2.907,1.2,1.2,-3.6
2.91,0.4,1.1,-4.1
2.912,0.6,1.3,-4.2
2.913,0.9,1.2,-4.3
3.025,0.9,1.1,-4.2
3.028,1.5,1.8,-3.9
3.03,1.9,2.1,-3.5
3.041,1.9,2.3,-3.1
3.103,2.3,2.3,-2.7
3.111,2.8,1.6,-1.3
3.113,2.2,0.9,-0.4
3.114,1.1,0.3,0.6
3.207,-0.6,-0.1,1.3
3.21,-2.0,-0.9,2.1
3.212,-2.2,-1.2,1.9
3.214,-0.7,-1.8,3.0
3.302,2.3,-1.8,4.8
3.306,-2.3,-1.8,4.5
3.307,-4.2,-2.8,3.7
3.309,-3.3,-3.4,2.7
3.411,-1.1,-2.9,1.7
3.415,0.7,-1.4,0.5
3.434,0.3,-1.5,-0.1
3.505,-0.5,-1.5,-0.6
3.507,-1.3,-1.3,-1.0
3.51,-1.9,-0.2,-1.1
3.512,-1.1,0.2,-1.3
3.608,0.2,0.2,-1.3
3.611,0.9,0.2,-1.2
3.615,-1.0,0.1,-1.0
3.619,-3.4,0.1,-1.1
3.707,-5.5,0.1,-1.1
3.709,-7.1,1.6,-1.1
3.718,0.5,3.5,-3.7
3.72,0.1,3.4,-4.3
3.82,-0.0,3.7,-4.2
3.822,0.5,4.1,-3.8
3.836,0.6,3.7,-2.9
3.838,0.6,3.5,-2.4
3.902,0.1,3.4,-1.8
3.904,-0.5,3.1,-1.2
3.907,-1.4,1.9,-0.0
3.915,-1.1,1.7,0.7
4.009,-0.2,1.0,1.4
4.015,0.0,-0.4,1.9
4.019,-1.6,-3.6,2.9
4.021,-1.9,-3.4,3.7
4.102,0.7,-2.9,3.4
4.104,2.4,-2.7,3.8
4.111,-1.4,-2.8,3.4
4.113,-0.5,-3.0,3.0
4.213,1.8,-2.7,2.6
4.215,1.8,-2.1,2.0
4.24,-1.0,-2.2,1.1
4.241,-0.9,-2.2,0.7
4.305,0.1,-1.8,0.4
4.306,0.7,-1.6,0.2
4.314,0.2,-1.5,-0.1
4.316,-0.2,-1.2,0.0
4.427,0.1,-0.8,-0.1
4.433,0.5,-0.6,-0.4
4.436,-3.1,0.1,-0.5
4.438,-4.3,0.2,-0.6
4.52,-2.7,0.5,-1.1
4.522,-2.4,1.9,-1.7
4.534,0.8,3.0,-3.0
4.536,-0.4,3.3,-3.4
4.537,-0.2,3.8,-3.4
4.598,0.7,4.3,-3.4
4.605,0.3,3.9,-2.7
4.607,-0.5,3.3,-2.1
4.707,-0.8,3.3,-1.6
4.708,-1.3,2.9,-1.1
4.715,-1.9,1.3,0.1
4.716,-1.2,0.5,0.6
4.802,-0.6,-0.5,1.3
4.804,-0.3,-1.1,2.0
4.807,-1.0,-1.6,4.0
4.808,-1.0,-2.1,4.4
4.912,-1.3,-2.9,4.6
4.914,-4.7,-3.2,4.2
4.919,-1.4,-4.9,1.0
4.921,4.0,-4.0,-0.0
5.004,2.0,-4.2,-1.2
5.006,0.5,-4.9,-1.5
5.013,3.4,-5.1,-1.6
5.014,3.5,-5.0,-1.3
5.103,2.8,-4.4,-0.8
5.104,2.1,-3.5,-0.5
5.112,1.5,-1.2,-0.7
5.207,1.5,-0.5,-0.5
5.214,0.6,0.3,-0.4
5.215,-0.5,0.9,-0.4
5.219,-2.9,2.4,-0.2
5.312,-4.2,2.5,0.1
5.314,-6.0,3.2,0.9
5.316,-2.5,4.3,-0.1
5.326,0.5,4.8,-2.9
5.404,0.6,4.0,-3.5
5.405,1.3,3.6,-3.8
5.407,1.5,3.6,-3.5
5.414,0.4,2.9,-3.0
5.506,-0.8,2.3,-2.5
5.508,-1.7,1.6,-1.9
5.509,-1.6,1.4,-1.3
5.513,0.5,1.1,-0.0
5.606,1.2,0.7,0.6
5.607,1.7,0.2,1.2
5.609,2.1,-0.6,1.8
5.617,1.9,-2.0,2.7
5.733,1.2,-2.3,3.2
5.736,0.6,-2.7,3.8
5.737,-0.3,-3.5,4.7
5.751,-0.4,-3.8,6.7
5.805,8.0,-3.8,6.4
5.808,6.0,-3.2,4.7
5.817,-0.7,-2.4,3.8
5.82,-5.7,-3.3,2.1
5.904,-3.2,-2.6,1.9
5.906,-1.5,-2.0,1.1
5.908,-0.4,-1.7,0.8
5.911,1.5,-1.6,0.4
6.006,1.6,-1.3,-0.2
6.008,1.1,-1.0,-0.4
6.01,0.6,-0.6,-1.0
6.013,-0.5,0.4,-1.8
6.117,-1.5,0.8,-2.1
6.119,-1.6,1.3,-1.6
6.127,-0.8,2.3,-2.0
6.142,7.2,3.0,-4.3
6.201,5.7,1.7,-4.9
6.203,3.1,1.4,-4.3
6.204,0.3,1.5,-3.9
6.214,-0.9,0.1,-3.8
6.302,-2.1,0.3,-3.6
6.304,-3.3,0.5,-3.0
6.306,-4.3,0.5,-2.3
6.313,-4.0,0.7,-1.1
6.401,-2.2,0.7,-0.1
6.403,-1.5,0.3,1.1
6.404,-1.5,-0.9,2.6
6.408,0.7,-3.2,5.9
6.514,0.5,-2.9,7.4
6.517,1.1,-3.0,7.8
6.528,4.7,-3.2,7.9
6.541,-1.7,-2.2,4.1
6.605,-2.9,-3.2,2.3
6.606,-1.7,-2.8,1.2
6.608,-1.6,-2.3,0.7
6.611,-3.0,-1.8,-0.5
6.701,-2.4,-1.3,-0.6
6.702,-1.5,-0.7,-0.6
6.704,-0.6,-0.3,-0.6
6.805,0.1,0.3,-0.4
6.807,-0.1,0.7,-0.3
6.809,-0.4,1.1,-0.3
6.811,-0.8,1.4,-0.6
6.917,-0.0,1.7,-1.5
6.919,-0.8,2.5,-2.3
6.933,-1.1,3.3,-3.0
6.935,-0.5,3.1,-3.7
7.005,0.7,3.0,-4.3
7.006,0.4,2.9,-4.1
7.008,1.2,3.0,-3.6
7.013,2.0,2.9,-3.2
7.103,0.6,2.1,-2.8
7.105,-0.5,1.7,-2.2
7.106,-1.0,1.3,-1.3
7.108,-0.9,0.6,-0.6
7.201,-0.2,-0.4,0.9
7.203,0.2,-0.7,1.9
7.204,0.5,-1.1,2.7
7.211,0.6,-1.9,3.7
7.318,-1.0,-1.6,6.3
7.329,-1.8,-0.9,7.2
7.331,-0.4,-1.1,6.5
7.333,-2.2,-1.7,4.3
7.401,-3.7,-2.4,1.2
7.403,-2.2,-2.1,0.6
7.41,-2.0,-2.3,0.0
7.411,-1.3,-2.3,-0.4
7.506,-0.3,-1.9,-0.3
7.511,-0.4,-1.8,-0.1
7.513,-0.5,-1.6,-0.1
7.514,-0.4,-1.4,-0.2
7.586,-1.6,-0.6,-1.0
7.599,-3.0,-0.1,-1.3
7.6,-2.6,0.2,-1.4
7.602,-1.0,0.4,-1.6
7.7,0.9,1.6,-1.9
7.703,0.7,2.1,-2.0
7.709,0.7,2.2,-2.5
7.711,0.9,2.4,-4.0
7.814,0.9,3.0,-4.4
7.816,2.3,3.4,-3.7
7.817,3.0,3.6,-3.0
7.819,2.8,3.3,-2.4
7.905,0.2,2.2,-1.7
7.907,-0.7,2.0,-1.1
7.909,-0.5,1.8,-0.6
7.91,0.2,1.4,-0.2
8.013,1.0,0.4,0.7
8.015,1.1,-0.1,1.2
8.024,0.9,-0.7,1.8
8.026,0.3,-1.3,2.4
8.105,-1.3,-1.6,3.6
8.107,-1.2,-1.9,4.2
8.11,-0.9,-2.3,5.0
8.111,-1.2,-1.9,5.3
8.205,-3.9,-2.3,3.5
8.207,-2.2,-3.6,2.6
8.208,-2.0,-3.4,1.6
8.21,-2.6,-2.8,0.8
8.298,-2.5,-3.3,-0.1
8.3,-1.4,-3.5,-0.4
8.302,-0.5,-3.3,-0.7
8.303,-0.2,-3.2,-0.9
8.422,-0.3,-2.9,-1.2
8.423,-0.1,-2.7,-1.2
8.425,-0.0,-2.4,-1.3
8.436,-0.3,-1.9,-1.4
8.506,-4.1,-1.5,-2.3
8.508,-5.1,-1.6,-3.3
8.51,-4.8,-1.2,-3.8
8.511,-3.9,0.2,-4.0
8.61,0.9,1.6,-4.2
8.612,1.9,1.7,-3.5
8.615,2.1,2.0,-2.9
8.617,2.4,2.5,-2.2
8.709,2.6,3.2,-1.4
8.71,2.1,3.1,-1.0
8.712,1.7,2.8,-0.7
8.713,1.8,2.5,-0.4
8.836,1.9,1.9,0.1
8.837,1.5,1.9,0.5
8.85,0.5,1.3,0.7
8.852,-1.0,-0.0,1.0
8.908,-2.2,-2.8,2.0
8.91,-1.8,-3.0,2.8
8.911,-0.9,-3.1,3.7
8.913,-0.6,-3.3,4.3
9.007,0.4,-4.4,4.9
9.009,-0.4,-4.4,4.3
9.01,-1.2,-4.3,3.2
9.012,-1.0,-4.3,1.9
9.103,-1.1,-4.0,0.8
9.105,-1.2,-3.7,0.7
9.106,-0.6,-3.4,0.3
9.108,0.2,-3.2,0.0
9.215,0.5,-2.9,-0.5
9.235,0.3,-2.6,-0.6
9.238,0.2,-2.4,-0.6
9.239,0.3,-2.3,-0.7
9.311,0.3,-2.3,-1.7
9.313,0.2,-1.8,-2.2
9.315,-0.0,-1.1,-2.0
9.316,-1.0,-0.5,-2.0
9.403,-2.9,0.3,-1.4
9.404,-0.0,1.7,-1.5
9.411,1.6,2.9,-2.5
9.413,1.5,3.2,-3.6
9.502,-0.7,2.4,-4.3
9.504,-0.7,2.9,-3.9
9.506,0.9,3.6,-3.6
9.507,2.0,3.5,-3.5
9.632,2.0,2.4,-2.9
9.634,1.7,2.0,-2.4
9.635,1.1,1.8,-1.7
9.637,0.2,1.4,-0.9
9.708,-2.4,-0.4,0.5
9.71,-3.0,-1.3,1.2
9.711,-2.8,-2.1,2.0
9.713,-3.0,-2.5,2.7
9.818,-2.3,-3.7,4.6
9.82,-1.8,-4.2,5.0
9.821,-3.5,-5.1,4.8
9.827,-5.3,-6.2,4.3
9.915,-2.8,-5.4,1.3
9.917,-0.7,-4.4,0.9
9.92,-0.5,-3.6,0.4
9.922,-1.0,-3.2,0.0
10.008,-0.5,-2.7,-0.8
10.009,0.4,-2.3,-1.1
10.014,1.2,-2.0,-1.2
10.016,1.8,-1.7,-1.2
10.101,2.3,-1.5,-1.1
10.103,2.2,-1.4,-1.1
10.105,2.9,-1.1,-1.3
10.201,3.8,-1.2,-1.5
10.204,3.9,-0.8,-2.4
10.206,1.4,-0.4,-3.0
10.207,-1.1,-0.3,-3.3
10.314,-2.1,0.1,-3.3
10.318,-1.0,1.7,-2.5
10.321,1.0,2.1,-2.5
10.323,1.2,2.9,-2.7
10.41,0.4,3.4,-2.9
10.413,0.2,3.5,-3.4
10.415,0.3,3.4,-3.2
10.418,0.7,3.2,-2.8
10.503,1.5,3.1,-2.4
10.508,3.2,1.8,-1.8
10.509,3.7,0.7,-1.4
10.514,3.0,-0.1,-0.7
10.6,1.7,-0.9,0.1
10.603,-0.4,-1.7,1.2
10.605,0.4,-2.0,2.0
10.607,2.2,-2.2,2.8
10.691,5.1,-2.2,3.6
10.694,-0.0,-1.1,4.5
10.696,-2.5,-1.5,5.6
10.707,-5.4,-1.4,5.8
10.818,-6.3,-1.7,5.6
10.821,-8.4,-3.2,3.3
10.823,-4.1,-2.5,2.4
10.906,-0.5,-1.8,1.8
10.908,0.2,-1.9,1.2
10.911,1.0,-1.1,0.7
10.913,1.7,-1.1,0.4
10.915,1.9,-1.0,0.3
11.004,2.0,-0.7,0.1
11.008,2.4,-0.8,-0.9
11.009,1.2,-0.3,-1.3
11.015,-0.1,0.2,-1.2
11.118,-0.9,0.4,-1.5
11.125,0.6,2.9,-2.5
11.136,1.5,3.3,-3.7
11.138,1.3,3.5,-4.6
11.204,1.3,3.8,-5.4
11.207,0.2,3.8,-5.4
11.209,-0.1,3.5,-4.9
11.211,0.1,3.6,-4.3
11.305,0.5,3.4,-3.8
11.308,0.3,2.8,-2.6
11.31,-0.2,2.6,-1.7
11.311,-0.5,1.9,-0.9
11.375,-0.9,0.9,-0.3
11.378,-0.6,-0.9,1.5
11.38,-0.6,-1.5,2.5
11.381,-0.9,-2.2,3.5
11.507,-1.7,-2.6,4.4
11.527,-1.7,-2.7,6.7
11.61,-5.7,-2.4,6.3
11.612,-6.2,-3.9,4.9
11.613,-1.0,-4.8,4.0
11.62,1.1,-2.9,2.2
11.622,-0.1,-2.0,1.8
11.709,-0.1,-1.9,1.4
11.711,0.4,-2.2,0.9
11.714,-0.7,-2.1,0.5
11.716,-0.5,-1.9,0.5
11.724,-0.1,-1.5,0.2
11.799,0.0,-0.8,-0.2
11.803,-0.3,-0.7,-0.7
11.809,-0.3,-0.6,-0.9
11.92,-0.1,0.1,-0.8
11.922,0.2,0.6,-0.9
11.936,0.1,2.1,-0.6
11.937,1.9,3.1,-1.7
12.0,1.3,2.9,-2.9
12.002,0.9,3.2,-3.8
12.012,1.1,3.3,-4.8
12.013,0.7,3.4,-4.6
12.103,0.7,3.4,-4.2
12.105,1.0,3.4,-3.6
12.108,0.7,3.2,-2.3
12.112,0.1,2.8,-1.7
12.205,-0.5,2.3,-1.2
12.207,-0.9,1.5,-0.6
12.21,-1.0,0.0,0.8
12.212,-1.3,-0.6,1.4
12.32,-1.7,-1.6,2.2
12.332,-1.3,-2.5,3.0
12.335,-0.3,-3.2,4.8
12.336,-0.3,-3.0,5.2
12.4,-2.4,-3.0,4.9
12.402,-4.5,-3.6,4.3
12.412,-3.1,-3.9,3.6
12.415,-0.0,-2.8,2.8
12.504,1.2,-2.5,2.2
12.505,1.5,-2.5,1.9
12.509,0.3,-2.1,1.0
12.511,-0.4,-2.0,0.7
12.615,-0.9,-2.0,0.5
12.618,-0.8,-1.8,0.3
12.629,-0.6,-1.2,-0.3
12.631,-1.0,-0.9,-0.7
12.7,-1.5,-0.4,-1.0
12.702,-1.8,0.3,-0.8
12.71,-1.1,1.6,-0.7
12.713,0.3,2.7,-1.1
12.809,2.5,3.6,-1.8
12.811,2.8,3.6,-2.8
12.814,3.8,3.7,-4.1
12.816,3.5,3.1,-4.5
12.9,2.4,2.7,-5.0
12.902,1.6,2.6,-5.0
12.91,1.3,2.1,-4.2
12.911,0.5,1.8,-3.8
13.013,-0.6,1.6,-3.3
13.015,-1.5,1.3,-2.5
13.028,-2.2,0.4,-1.2
13.039,-1.7,-0.5,0.0
13.075,-2.3,-2.0,2.3
13.076,-2.4,-1.7,3.0
13.08,-0.3,-3.9,3.5
13.081,-0.2,-4.3,5.5
13.201,-3.2,-3.8,5.9
13.202,-3.0,-5.6,6.8
13.307,1.9,-4.7,5.0
13.308,-0.1,-3.4,4.3
13.31,-0.6,-3.1,3.3
13.312,-0.1,-3.1,2.9
13.319,-0.2,-3.0,2.0
13.412,-0.4,-2.8,1.5
13.414,-0.5,-2.5,1.1
13.415,-0.5,-2.2,0.7
13.44,-1.2,-1.1,0.0
13.503,-1.9,0.2,-0.1
13.505,-1.6,1.2,-0.2
13.506,-0.9,1.5,-0.4
13.51,0.3,1.0,-0.5
13.604,1.3,1.2,-0.7
13.605,0.8,1.6,-1.5
13.607,0.3,1.6,-2.5
13.613,2.4,2.0,-4.5
13.708,2.2,1.8,-5.0
13.709,1.4,1.7,-5.4
13.711,1.1,1.8,-5.5
13.714,1.3,1.9,-5.5
13.82,1.9,2.0,-5.2
13.821,2.4,2.0,-4.7
13.823,2.0,1.7,-4.1
13.836,0.6,0.8,-2.6
13.904,0.5,0.4,-1.8
13.908,1.3,-0.1,-0.7
13.91,2.4,-0.7,0.6
13.913,0.5,-2.1,3.6
14.003,0.1,-1.9,3.9
14.004,0.1,-1.5,4.8
14.006,-1.9,-1.9,7.3
14.012,-2.5,-2.4,6.3
14.099,0.6,-3.0,5.5
14.1,-0.7,-2.8,4.4
14.102,-1.5,-2.4,3.5
14.109,-1.2,-2.2,2.5
14.211,-1.0,-2.0,2.1
14.213,-0.2,-1.9,1.8
14.224,0.2,-2.0,1.5
14.235,-0.4,-2.0,1.0
14.309,-1.0,-2.0,0.7
14.31,-1.1,-1.9,0.2
14.312,-0.7,-1.7,-0.4
14.315,-0.6,-1.3,-1.4
14.408,-0.3,-1.2,-1.9
14.409,0.5,-1.2,-1.8
14.411,1.5,-0.8,-2.4
14.414,4.5,-0.3,-3.2
14.529,2.5,-0.2,-3.9
14.53,-0.4,-0.4,-4.3
14.532,-1.9,-0.4,-4.5
14.535,-1.3,1.2,-4.3
14.622,-1.0,1.4,-4.0
14.639,-0.9,1.4,-3.5
14.641,-1.0,1.7,-2.9
14.644,-0.3,2.0,-1.1
14.646,0.1,1.7,-0.3
14.697,0.2,1.1,0.7
14.699,0.1,0.4,1.6
14.705,-0.4,-0.6,3.0
14.801,0.5,-1.1,3.7
14.803,1.2,-1.8,4.4
14.805,1.0,-1.7,5.1
14.904,-1.8,-2.1,3.4
14.905,-2.1,-2.5,2.7
14.907,-2.3,-2.5,2.1
14.909,-2.0,-2.4,1.6
15.012,0.4,-1.8,1.2
15.027,0.6,-2.1,1.0
15.035,0.6,-2.5,0.9
15.037,0.5,-2.8,0.8
15.108,0.7,-2.7,0.8
15.11,0.9,-2.6,0.6
15.111,1.2,-2.4,0.4
15.113,1.7,-2.3,0.2
15.116,0.7,-2.4,0.0
15.203,-0.1,-2.3,0.0
15.205,-1.3,-2.2,0.1
15.206,-2.8,-2.1,0.1
15.32,1.2,-0.7,-1.0
15.322,-0.0,-0.1,-1.6
15.324,-1.7,0.2,-2.1
15.325,-1.1,0.6,-2.9
15.402,1.1,1.4,-3.7
15.404,0.8,1.4,-3.6
15.405,0.8,1.4,-3.3
15.408,1.4,1.0,-2.8
15.499,1.1,0.2,-1.1
15.501,0.6,-0.2,-0.0
15.507,0.3,-0.9,1.0
15.509,0.1,-1.7,2.0
15.599,0.2,-3.0,3.3
15.601,1.2,-3.1,4.0
15.603,2.7,-2.7,4.7
15.604,3.3,-2.1,5.6
15.711,-2.2,-1.5,5.7
15.713,-2.0,-2.4,5.5
15.721,-0.1,-3.0,4.8
15.723,-0.3,-3.0,4.3
15.801,-0.8,-2.7,3.1
15.803,-0.2,-2.3,2.6
15.805,0.4,-2.1,2.0
15.806,0.4,-2.0,1.7
15.902,0.3,-2.1,1.0
15.904,0.2,-2.0,0.7
15.906,-0.2,-2.0,0.4
15.907,-0.6,-2.0,0.0
16.004,-1.0,-1.9,-0.6
16.005,-1.2,-1.6,-0.8
16.007,-1.3,-1.3,-1.0
16.011,-1.5,-1.1,-1.1
16.118,-1.1,-0.2,-2.0
16.12,0.2,0.3,-2.5
16.121,0.3,0.5,-3.4
16.132,0.8,0.8,-4.1
16.199,1.3,0.9,-4.8
16.201,0.8,0.9,-4.8
16.202,0.6,0.9,-4.7
16.204,0.7,0.9,-4.5
16.303,0.5,0.8,-3.3
16.308,-0.1,0.5,-2.5
16.31,-0.4,0.1,-1.7
16.311,-0.5,-0.1,-0.9
16.399,-1.1,-0.4,0.9
16.401,-1.4,-0.5,2.0
16.406,-1.0,-0.6,3.0
16.408,-0.4,-0.8,3.8
16.511,-0.9,-0.8,5.6
16.514,-1.1,-1.0,6.2
16.533,-0.9,-1.3,6.2
16.535,-0.6,-1.6,5.9
16.597,-2.5,-1.5,4.9
16.598,-2.8,-1.3,3.7
16.6,-3.1,-2.3,2.5
16.602,-2.7,-3.1,1.9
16.702,-1.1,-3.0,1.5
16.704,-0.1,-3.0,1.3
16.705,1.0,-2.9,1.1
16.712,1.9,-2.6,0.9
16.801,1.9,-2.1,0.2
16.803,1.3,-1.7,-0.4
16.804,0.2,-1.2,-1.0
16.806,-0.5,-0.7,-1.5
16.911,0.7,0.6,-2.2
16.932,1.3,1.4,-2.6
16.934,2.3,1.7,-3.3
16.936,3.3,2.1,-3.1
17.008,-2.4,2.3,-5.6
17.01,-4.5,2.0,-6.3
17.012,-4.8,3.1,-6.0
17.013,-3.6,4.3,-5.6
17.105,-3.2,4.9,-5.0
17.107,-3.0,4.7,-4.5
17.108,-1.6,4.7,-3.7
17.11,0.5,4.6,-3.1
17.206,2.6,2.9,-2.3
17.207,0.8,1.6,-0.7
17.209,-1.5,0.4,0.9
17.211,-2.1,0.2,1.6
17.328,-0.6,-2.1,2.7
17.336,-1.0,-2.3,3.6
17.338,-1.0,-2.3,4.3
17.34,0.4,-2.7,5.2
17.404,3.1,-1.7,6.4
17.405,2.9,-0.6,6.0
17.407,1.7,-0.4,5.1
17.409,0.7,-1.0,4.6
17.506,0.9,-1.3,3.6
17.508,1.0,-1.6,3.1
17.51,1.8,-1.6,2.8
17.512,3.2,-1.1,2.9
17.611,1.9,-1.1,2.7
17.612,0.0,-1.3,2.2
17.614,-1.5,-1.7,1.3
17.616,-2.7,-1.9,0.4
17.705,-2.9,-1.4,-0.6
17.707,-2.6,-1.1,-1.3
17.708,-1.8,-0.6,-2.0
17.71,-1.0,-0.1,-2.5
17.805,-0.4,0.5,-3.7
17.807,1.4,0.9,-3.9
17.808,1.7,1.1,-5.0
17.81,0.7,1.0,-5.3
17.9,0.8,0.8,-5.6
17.902,3.3,1.6,-5.5
17.904,4.4,2.2,-5.0
17.905,4.2,2.2,-4.2
18.016,2.4,-0.6,-3.1
18.019,1.7,-0.8,-2.4
18.021,1.2,-0.1,-1.6
18.032,0.4,0.5,-0.4
18.103,-1.3,1.2,2.2
18.105,-1.8,1.4,3.4
18.11,-2.1,1.6,4.5
18.112,-3.0,2.3,6.0
18.203,-3.0,2.6,7.3
18.205,0.3,0.4,6.5
18.207,-2.3,-1.1,5.7
18.209,-3.5,-1.1,5.4
18.303,-1.9,-1.5,3.6
18.304,-1.7,-1.5,3.1
18.306,-1.8,-1.5,2.8
18.415,-1.6,-1.1,2.4
18.419,-0.9,-1.0,1.7
18.427,-0.6,-1.1,1.2
18.439,-0.4,-1.1,0.5
18.506,-0.3,-1.1,-0.3
18.51,0.1,-1.0,-1.5
18.512,0.2,-0.8,-1.7
18.513,-0.3,-0.7,-2.1
18.603,-0.9,-0.7,-2.4
18.607,-0.2,0.0,-3.7
18.609,-0.0,0.2,-4.5
18.611,-0.4,0.4,-5.1
18.699,-0.5,0.5,-5.6
18.707,0.0,1.4,-5.7
18.709,-0.0,1.8,-5.2
18.71,-0.1,1.7,-4.7
18.811,-0.2,1.7,-4.3
18.823,0.1,2.3,-2.6
18.857,0.3,1.7,-1.7
18.859,0.7,0.4,-0.9
18.922,0.7,-0.5,0.1
18.926,-0.2,-1.0,2.0
18.927,-0.5,-1.2,3.2
18.932,-0.7,-1.0,4.5
18.998,-1.3,-0.1,5.7
19.006,-1.3,2.4,7.1
19.008,-0.6,2.2,6.3
19.013,-0.8,0.7,5.4
19.098,-2.7,-0.3,4.4
19.101,-3.5,-1.7,2.3
19.103,-3.0,-3.0,2.0
19.104,-2.9,-3.2,1.9
19.211,-2.4,-2.3,1.8
19.224,-0.2,-1.6,1.4
19.225,0.1,-1.9,1.1
19.227,0.2,-1.9,0.7
19.303,0.1,-1.6,0.2
19.308,-0.9,-1.1,-0.8
19.309,-1.0,-0.5,-1.0
19.314,-1.1,0.0,-1.1
19.4,-1.5,0.3,-1.3
19.403,2.3,2.0,-3.1
19.405,1.7,2.0,-4.2
19.406,0.9,1.6,-5.1
19.498,1.3,1.4,-5.6
19.502,1.9,1.7,-5.8
19.508,2.0,1.7,-5.4
19.509,2.1,1.4,-5.1
19.618,1.8,0.9,-4.7
19.63,0.4,-0.3,-3.3
19.632,-0.3,-0.6,-2.2
19.634,-0.8,-1.0,-0.9
19.704,-1.4,-1.2,0.1
19.707,-0.7,-1.6,3.7
19.708,-1.1,-0.9,5.9
19.71,-1.6,-0.7,8.3
19.806,-2.3,0.2,8.7
19.81,-1.4,-0.4,8.5
19.811,-2.3,-2.0,5.9
19.813,-3.2,-2.6,5.0
19.9,-2.3,-3.1,2.5
19.903,-2.8,-3.6,1.8
19.905,-2.0,-3.7,1.7
20.011,-1.5,-3.7,1.5
20.023,-1.6,-3.4,1.3
20.026,-1.9,-2.8,0.7
20.028,-1.7,-2.7,0.4
20.109,-1.4,-2.6,-0.0
20.111,-1.3,-2.0,-0.4
20.114,-1.3,0.2,-1.6
20.116,-0.9,1.2,-2.2
20.203,-0.1,2.0,-2.7
20.204,1.0,2.8,-3.0
20.208,3.1,3.9,-3.6
20.211,3.2,3.6,-4.0
20.312,3.1,2.6,-4.5
20.314,2.8,2.1,-4.6
20.317,1.7,2.5,-4.4
20.319,1.1,1.7,-4.2
20.404,0.4,1.4,-3.8
20.406,0.0,1.3,-3.4
20.409,1.0,-0.1,-2.0
20.414,1.6,-0.6,-1.2
20.498,1.7,-1.1,-0.4
20.5,1.5,-1.6,0.6
20.503,0.2,-2.5,2.6
20.505,-0.7,-2.9,3.6
20.598,-1.4,-2.9,4.6
20.601,-1.9,-2.6,5.5
20.609,-0.6,-2.2,6.7
20.611,1.4,-2.3,6.2
20.713,2.0,-2.1,5.7
20.721,0.3,-1.9,4.8
20.725,-3.7,-2.3,3.2
20.736,-4.0,-2.8,2.8
20.802,-3.3,-2.9,2.5
20.803,-2.0,-2.7,2.2
20.828,-0.7,-2.5,1.7
20.83,-1.0,-2.6,1.5
20.901,-1.4,-2.7,1.1
20.903,-1.5,-2.6,0.8
20.909,-2.3,-2.5,-0.3
20.911,-2.4,-2.2,-0.6
20.974,-1.9,-1.6,-0.7
20.98,-1.5,-1.1,-0.8
20.984,-0.8,0.4,-1.8
20.985,0.0,1.2,-2.5
21.109,0.8,1.8,-3.1
21.118,1.5,1.8,-3.8
21.13,1.8,0.7,-4.2
21.207,1.7,1.2,-4.1
21.209,2.3,1.4,-4.0
21.21,2.6,1.0,-3.8
21.214,2.1,0.5,-2.9
21.219,1.6,0.7,-2.1
21.298,1.1,0.6,-1.1
21.299,1.3,0.2,-0.3
21.303,1.3,-0.4,1.4
21.304,0.6,-1.0,2.3
21.398,-0.5,-1.4,3.0
21.4,-0.9,-1.5,4.0
21.403,-0.5,-1.5,5.8
21.404,-0.6,-1.5,6.3
21.513,-1.9,-1.5,6.0
21.514,-3.1,-2.0,5.3
21.531,-4.1,-3.3,4.2
21.534,-3.7,-3.4,3.8
21.599,-2.3,-3.5,3.3
21.601,-0.8,-3.4,2.7
21.607,0.3,-3.8,1.8
21.702,0.2,-3.8,1.4
21.704,0.2,-3.5,1.2
21.708,0.3,-3.2,1.0
21.712,-0.5,-2.3,0.4
21.825,-0.8,-1.5,0.0
21.826,-1.0,-0.8,-0.3
21.828,-1.3,-0.3,-0.4
21.831,-2.5,1.1,-0.2
21.919,-2.9,1.8,-0.1
21.922,-2.3,2.3,-0.6
21.932,-1.3,3.0,-1.4
21.936,0.1,4.2,-2.9
21.999,1.9,4.4,-3.9
22.001,3.1,4.3,-4.6
22.002,3.4,3.8,-4.9
22.006,3.3,2.8,-4.8
22.105,2.7,1.9,-4.6
22.107,2.0,1.4,-4.4
22.108,1.5,1.0,-4.0
22.115,0.4,0.4,-2.8
22.197,-0.2,0.0,-2.1
22.199,-0.8,-0.5,-1.4
22.201,-2.0,-1.2,-0.7
22.208,-3.2,-2.5,1.4
22.311,-1.7,-2.9,2.5
22.323,-0.7,-3.3,3.6
22.333,-0.7,-3.6,4.7
22.336,-0.9,-3.8,5.6
22.407,-0.1,-3.8,5.0
22.409,0.1,-3.8,4.2
22.41,0.2,-3.4,3.6
22.413,0.5,-2.7,2.4
22.503,0.6,-2.2,1.8
22.504,0.6,-2.0,1.4
22.506,0.3,-1.9,1.1
22.509,0.3,-1.5,0.9
22.612,0.4,-1.1,0.8
22.614,0.4,-0.6,0.5
22.617,0.1,-0.2,0.1
22.627,-0.2,0.2,-1.1
22.682,0.2,0.5,-1.8
22.684,0.7,0.5,-2.0
22.686,0.6,0.6,-2.4
22.689,2.4,1.1,-3.4
22.809,1.8,1.2,-3.9
22.811,0.4,1.2,-4.2
22.812,-0.7,1.4,-4.4
22.909,-0.7,2.7,-4.4
22.91,-0.6,3.1,-4.3
22.912,-0.4,3.2,-4.1
22.914,0.1,3.2,-3.7
22.917,1.2,2.9,-2.7
23.007,1.2,2.5,-2.2
23.008,0.7,2.2,-1.5
23.01,0.1,1.7,-0.8
23.037,-0.7,0.8,0.8
23.099,-0.8,0.1,1.6
23.1,-0.7,-0.6,2.4
23.102,-0.7,-1.2,3.3
23.109,-1.2,-1.2,4.8
23.195,-0.3,-1.3,5.0
23.197,1.5,-1.6,4.9
23.198,-0.0,-2.3,4.1
23.302,-4.8,-3.0,3.1
23.303,-6.3,-3.4,2.6
23.305,-7.0,-3.2,2.1
23.307,-6.1,-2.9,1.3
23.413,-2.9,-2.6,0.6
23.415,-2.0,-2.8,0.3
23.416,-1.0,-2.7,0.1
23.418,-0.1,-2.3,-0.1
23.498,1.4,-1.1,-0.3
23.499,1.1,-0.7,-0.4
23.501,0.2,-0.3,-0.5
23.506,-0.9,0.1,-0.7
23.602,-1.5,1.5,-0.9
23.603,-0.2,2.7,-1.3
23.606,0.5,3.2,-2.1
23.608,0.9,3.7,-2.8
23.703,1.1,3.7,-3.6
23.705,0.7,3.9,-3.7
23.706,0.2,4.0,-3.6
23.708,-0.1,4.0,-3.2
23.817,0.8,3.5,-2.6
23.819,1.2,3.1,-2.2
23.826,1.5,2.9,-1.8
23.837,1.8,2.6,-1.4
23.902,1.3,1.4,-0.5
23.904,1.2,0.9,0.0
23.906,0.9,0.0,0.3
23.912,0.3,-0.5,0.9
23.997,1.3,-1.1,3.1
24.002,1.2,-1.0,4.3
24.003,0.5,-0.7,5.2
24.005,-1.1,-0.6,5.3
24.102,-2.7,-1.4,4.5
24.103,-2.7,-1.6,3.9
24.105,-2.0,-1.6,3.1
24.109,-1.6,-1.9,2.5
24.216,-1.8,-2.3,1.6
24.217,-1.5,-2.4,1.5
24.228,-1.1,-2.8,1.4
24.23,-0.8,-2.9,1.2
24.297,-0.6,-2.6,0.6
24.299,-0.6,-2.3,-0.0
24.309,-0.8,-1.8,-0.6
24.311,-1.2,-1.1,-0.8
24.401,-1.3,0.7,0.1
24.403,-0.9,1.6,-0.4
24.405,0.5,2.5,-1.6
24.406,1.6,3.3,-2.7
24.501,2.5,3.7,-4.6
24.503,2.4,3.5,-4.8
24.505,2.8,3.6,-4.7
24.506,3.2,3.5,-4.6
24.619,3.0,1.9,-3.9
24.63,2.4,1.3,-3.4
24.632,1.8,1.0,-2.8
24.634,1.3,0.8,-2.0
24.697,0.0,-0.3,-0.3
24.699,-0.8,-1.0,0.8
24.702,-1.6,-1.5,1.9
24.709,-1.7,-1.9,3.0
24.799,-0.9,-2.0,5.1
24.8,-0.6,-2.1,6.2
24.802,-1.1,-1.5,7.1
24.804,-1.3,-1.4,7.2
24.895,-0.7,-2.4,5.1
24.901,-2.8,-2.6,4.1
24.903,-3.3,-2.9,3.1
24.905,-2.9,-3.0,2.8
25.041,-1.0,-2.6,1.6
25.043,-0.7,-2.4,1.2
25.045,-1.0,-2.4,0.9
25.046,-1.1,-2.4,0.7
25.102,-0.7,-1.8,0.4
25.104,-0.9,-1.4,-0.0
25.109,-0.9,-1.1,-0.4
25.11,-1.0,-0.7,-0.7
25.199,-1.5,0.1,-0.9
25.2,-1.2,0.6,-0.4
25.202,-0.9,1.3,0.3
25.203,-0.8,1.9,0.7
25.285,6.4,5.9,-2.5
25.287,4.4,4.1,-4.9
25.288,3.0,1.2,-5.3
25.29,1.9,1.4,-6.0
25.399,1.5,2.5,-5.4
25.401,1.4,1.7,-5.1
25.402,0.1,1.4,-4.6
25.507,-1.0,1.6,-4.0
25.511,-0.8,1.3,-2.3
25.512,-0.0,0.5,-1.0
25.514,0.1,-0.4,0.4
25.516,-0.6,-0.9,1.3
25.615,-1.4,-2.0,3.5
25.617,-1.4,-2.3,4.5
25.621,-2.0,-2.0,5.4
25.623,-2.8,-1.3,6.5
25.72,1.0,-1.1,6.2
25.722,1.4,-1.4,5.4
25.724,-1.1,-1.5,3.8
25.736,-3.1,-2.4,3.0
25.801,-4.1,-3.8,2.1
25.803,-3.8,-3.8,1.5
25.805,-2.9,-3.6,1.0
25.807,-1.9,-3.5,0.8
25.903,-1.2,-3.1,0.7
25.905,-1.1,-2.8,0.4
25.906,-1.0,-2.1,0.3
25.908,-1.1,-1.8,-0.0
26.003,-1.5,-0.8,-0.3
26.005,-0.9,-0.3,-0.7
26.007,-0.3,0.2,-1.0
26.008,0.3,0.7,-1.6
26.116,4.0,2.9,-3.6
26.118,3.5,2.6,-4.4
26.138,2.7,1.3,-4.8
26.139,2.0,0.9,-5.0
26.205,1.8,2.6,-5.1
26.207,1.9,2.5,-5.0
26.209,1.4,2.4,-4.9
26.212,0.9,2.4,-4.6
26.299,0.7,2.1,-3.6
26.3,0.5,1.8,-3.1
26.302,0.2,1.5,-2.5
26.304,-0.1,1.1,-1.9
26.403,-0.5,0.6,-0.5
26.405,-0.4,0.2,0.3
26.406,-0.4,-0.1,1.2
26.408,-0.5,-0.4,2.0
26.51,-0.7,-0.9,3.9
26.522,-1.0,-1.0,4.5
26.524,-0.5,-1.4,4.5
26.598,-0.5,-1.3,4.6
26.602,-0.5,-2.3,3.1
26.611,-0.6,-3.1,2.5
26.613,-1.3,-4.0,2.3
26.697,-2.3,-4.5,1.6
26.7,0.1,-5.0,1.3
26.702,1.4,-5.1,1.2
26.709,2.2,-5.1,1.1
26.797,2.8,-4.8,1.0
26.805,4.1,-4.2,1.2
26.807,4.5,-3.9,1.3
26.809,4.6,-3.7,1.4
26.908,5.5,-3.4,1.4
26.929,10.3,-2.1,1.5
26.931,10.5,-0.2,1.5
26.932,9.0,1.0,1.9
26.996,6.5,1.0,2.3
27.0,2.6,0.6,1.5
27.007,2.1,1.0,1.6
27.009,2.1,1.4,1.5
27.102,2.0,1.6,1.4
27.105,1.6,1.7,1.6
27.107,1.2,1.4,1.5
27.108,1.0,1.4,1.6
27.198,0.8,1.5,1.9
27.203,0.2,1.9,2.3
27.205,-0.1,1.5,2.0
27.324,-0.2,1.0,1.7
27.326,-0.4,0.8,1.5
27.341,-0.7,0.2,1.2
27.343,-0.1,-0.0,0.2
27.344,0.2,0.2,0.7
27.414,0.2,0.1,0.4
27.417,0.3,0.1,0.4
27.418,-0.1,0.0,0.4
27.42,-0.4,0.0,0.4
27.493,-0.5,-0.1,0.3
27.496,-0.4,-0.2,0.1
27.498,-0.3,-0.3,0.0
27.613,-0.3,-0.5,-0.2
27.617,-0.2,-0.4,-0.4
27.622,-0.3,-0.6,-0.6
27.624,-0.3,-0.5,-0.7
27.626,-0.1,-0.5,-0.7
27.696,-0.1,-0.7,-0.5
27.704,0.0,-0.4,-0.9
27.706,0.1,-0.3,-0.4
27.707,-0.1,-0.4,-0.5
27.787,-0.3,-0.7,-0.4
27.79,-0.4,-0.4,-0.4
27.792,-0.3,-0.4,-0.6
27.793,-0.3,-0.2,-0.4
27.897,-0.5,0.4,-0.0
27.901,-0.8,0.8,-0.1
28.014,-1.0,1.0,0.2
28.017,-0.5,1.2,-0.1
28.019,-0.4,1.2,-0.4
28.023,-0.5,0.6,-0.4
28.025,-0.3,0.1,-0.2
28.102,-0.2,0.0,0.1
28.104,-0.0,0.0,0.2
28.107,-0.1,0.1,0.2
28.109,0.0,-0.0,0.2
28.11,0.0,0.1,0.3
28.171,-0.1,0.4,0.4
28.178,0.1,0.2,0.5
28.18,0.3,0.1,0.4
28.297,0.3,0.1,0.2
28.298,0.3,0.1,0.1
28.302,0.2,0.1,-0.0
