gyro_time_list,gyro_x_list,gyro_y_list,gyro_z_list
0.003,0.5,-0.2,-0.2
0.007,-0.5,0.2,0.1
0.104,-0.2,0.1,0.2
0.107,-0.0,0.0,-0.0
0.11,-0.2,0.1,0.1
0.207,-0.2,0.1,0.2
0.21,-0.2,0.1,0.1
0.317,-0.2,0.1,0.1
0.322,-0.2,0.0,0.1
0.374,-0.5,-0.0,0.4
0.435,-1.1,0.1,0.6
0.439,-2.5,-0.9,0.7
0.504,-3.5,-0.4,1.8
0.507,-4.4,-0.4,2.6
0.51,-5.5,0.3,3.0
0.606,-7.7,0.7,3.1
0.61,-6.0,1.1,3.7
0.718,-4.5,0.7,4.2
0.721,-3.2,1.0,4.4
0.737,-1.1,0.4,4.1
0.809,-1.8,0.6,4.1
0.812,-2.2,0.5,4.0
0.907,-2.1,0.6,3.5
0.911,-2.6,0.6,2.6
0.914,-3.0,0.2,1.7
1.006,-2.1,0.1,0.8
1.009,-1.7,0.0,0.0
1.116,-3.7,-0.2,-0.6
1.127,-4.5,-0.2,-0.6
1.13,-2.6,0.0,-0.6
1.205,2.8,0.5,-0.3
1.209,4.8,0.6,-0.2
1.3,2.7,0.5,-0.3
1.309,0.7,0.3,-0.7
1.313,-0.0,-0.2,-0.8
1.402,-1.1,-0.1,-0.7
1.405,-0.8,-0.0,-0.6
1.505,0.1,0.1,-0.4
1.517,0.8,0.2,-0.2
1.6,1.0,0.2,-0.1
1.608,0.5,0.1,0.0
1.612,0.0,0.1,0.1
1.708,-0.1,0.0,0.2
1.711,-0.0,0.0,0.3
1.802,0.1,0.0,0.4
1.81,0.0,0.0,0.5
1.812,-0.0,-0.0,0.4
1.932,-0.0,-0.0,0.4
1.935,0.0,0.0,0.2
2.01,-0.1,0.1,0.1
2.013,-0.1,0.0,-0.0
2.016,-0.1,0.0,-0.1
2.106,-0.1,0.0,-0.2
2.109,-0.0,0.0,-0.2
2.211,0.0,0.1,-0.1
2.22,0.1,0.1,-0.1
2.223,0.1,0.1,-0.0
2.302,-0.1,0.0,-0.1
2.339,-0.1,-0.0,-0.1
2.402,-0.2,-0.0,-0.1
2.409,-0.2,-0.0,-0.1
2.412,-0.2,0.0,-0.1
2.503,-0.1,-0.0,0.0
2.511,-0.0,0.0,0.1
2.608,-0.1,-0.1,0.2
2.611,-0.2,-0.1,0.2
2.633,-0.4,-0.1,0.1
2.701,-0.5,-0.0,0.2
2.706,-0.1,0.1,0.4
2.804,0.6,0.4,0.7
2.808,1.1,0.3,1.0
2.811,0.8,-0.3,1.1
2.913,-0.3,-0.8,0.8
2.917,-1.3,-0.9,0.1
3.014,-1.3,-0.3,-0.4
3.017,-0.6,0.2,-0.5
3.033,0.4,0.7,-0.4
3.105,1.1,0.6,-0.3
3.108,0.8,0.3,-0.5
3.172,0.1,0.1,-0.7
3.175,-0.2,0.2,-0.7
3.331,0.0,0.3,-0.4
3.334,0.5,0.4,0.1
3.415,0.5,0.2,0.6
3.419,-0.1,0.0,0.8
3.431,-1.0,-0.3,0.7
3.502,-1.3,-0.3,0.7
3.506,-0.8,-0.3,0.8
3.512,0.8,-0.2,0.7
3.604,2.0,-0.1,0.6
3.607,-1.7,-0.5,0.0
3.699,-2.7,-1.3,-0.1
3.702,-1.8,-1.3,-0.7
3.708,-0.7,-0.8,-0.7
3.809,0.0,-0.6,-0.3
3.82,-0.4,-0.3,-0.0
3.912,0.1,-0.0,0.2
3.915,0.6,0.1,0.2
3.918,1.0,0.4,0.2
4.001,1.0,0.4,0.1
4.005,1.0,0.2,-0.0
4.099,2.4,0.3,0.1
4.106,0.6,0.4,0.2
4.109,-0.2,0.4,0.0
4.225,-0.1,0.1,0.2
4.228,-0.8,-0.0,0.3
4.325,-1.0,0.2,0.6
4.328,-0.6,-0.0,0.9
4.331,0.2,0.2,0.8
4.405,0.7,0.7,0.3
4.411,0.5,0.5,-0.6
4.512,0.3,0.3,-1.1
4.515,0.4,0.1,-1.3
4.519,0.9,-0.1,-1.3
4.604,1.3,0.3,-1.1
4.609,1.5,0.4,-1.0
4.706,1.4,0.3,-1.1
4.71,1.2,0.0,-1.1
4.714,0.8,-0.4,-1.2
4.802,0.4,-0.5,-1.1
4.806,-0.1,-0.5,-1.0
4.923,-0.5,-0.2,-0.5
4.926,-0.5,-0.1,-0.0
5.003,0.0,0.3,0.8
5.006,-0.2,-0.4,1.2
5.009,-0.9,-0.4,1.9
5.105,-0.4,-0.6,2.6
5.109,-0.5,-0.9,2.4
5.205,-1.4,-0.8,1.8
5.209,-2.4,-0.9,1.0
5.212,-2.8,-0.6,0.4
5.323,-1.9,0.0,0.2
5.326,-0.7,0.3,0.1
5.402,0.2,0.2,0.0
5.406,1.0,0.6,-0.2
5.409,1.2,0.3,-0.4
5.506,1.1,0.1,-0.5
5.509,0.8,-0.1,-0.5
5.604,0.5,-0.1,-0.6
5.607,0.5,0.1,-0.6
5.61,0.3,0.4,-0.6
5.717,0.2,0.6,-0.2
5.728,0.6,0.6,0.2
5.802,1.2,0.7,0.5
5.806,1.6,1.1,0.7
5.809,1.3,0.4,0.3
5.914,0.6,0.5,-0.2
5.917,-0.1,-0.1,-1.1
6.002,-0.4,-0.1,-1.5
6.005,0.2,0.0,-1.7
6.013,0.9,0.2,-1.7
6.108,1.3,0.2,-1.2
6.128,1.3,0.1,-0.9
6.206,1.2,0.2,-0.4
6.212,1.3,0.2,-0.0
6.215,1.2,0.2,0.3
6.308,1.0,0.3,0.5
6.311,0.5,0.3,0.5
6.404,0.4,0.5,0.4
6.407,0.6,0.7,0.3
6.412,0.6,0.8,0.4
6.525,0.8,1.1,0.6
6.533,0.7,1.0,0.9
6.6,0.4,0.7,1.2
6.607,0.6,0.4,1.4
6.705,1.2,0.2,1.2
6.708,0.9,-0.2,0.4
6.711,-0.7,-0.6,-1.3
6.805,0.4,-1.4,-1.2
6.809,-0.9,-1.2,-1.7
6.921,-0.5,-0.7,-1.5
6.935,-0.1,-0.3,-0.9
6.939,0.4,0.1,-0.3
7.004,0.9,0.4,0.2
7.007,1.4,0.6,0.6
7.099,1.6,0.6,0.7
7.107,1.6,0.6,0.5
7.11,1.3,0.5,0.1
7.213,0.7,0.4,-0.3
7.216,0.3,0.3,-0.5
7.302,-0.6,0.3,-0.1
7.306,-0.7,0.5,0.3
7.312,-0.3,0.7,0.9
7.404,0.7,0.5,1.0
7.407,0.9,0.1,1.1
7.505,-2.9,-0.4,0.5
7.508,-5.2,-0.4,0.8
7.512,-1.9,-0.2,1.3
7.613,2.4,0.3,1.3
7.616,4.7,0.4,0.9
7.702,3.6,0.5,0.4
7.705,3.0,0.5,-0.4
7.712,2.1,0.1,-0.8
7.808,1.1,-0.3,-1.3
7.813,0.1,-0.4,-1.7
7.912,0.2,-0.3,-1.9
7.917,0.0,-0.4,-1.9
7.921,0.1,-0.2,-1.8
8.01,0.4,-0.1,-1.6
8.029,0.6,0.2,-1.4
8.097,0.7,0.3,-1.0
8.1,0.6,0.4,-0.5
8.202,0.4,0.5,0.1
8.207,0.4,0.6,0.9
8.21,0.4,0.7,1.6
8.303,0.3,0.8,2.3
8.307,0.3,0.8,2.7
8.406,0.5,0.8,2.7
8.409,1.1,0.2,2.3
8.426,1.4,-0.5,1.5
8.508,1.1,-0.5,0.4
8.511,-0.1,-0.4,-0.7
8.635,-1.0,-1.0,-1.4
8.638,-1.5,-1.1,-1.9
8.641,-1.4,-1.0,-2.3
8.711,-1.0,-0.8,-2.6
8.714,-0.9,-0.8,-2.5
8.721,-1.7,-0.9,-2.0
8.824,-2.2,-0.6,-1.2
8.827,-1.3,-0.4,-0.4
8.915,-0.1,0.0,0.3
8.918,1.0,0.4,0.7
9.003,1.6,0.5,1.0
9.008,1.2,0.4,1.3
9.012,0.1,0.2,1.7
9.1,-0.7,0.0,2.2
9.103,-1.7,-0.1,2.8
9.215,-1.4,-0.2,2.0
9.23,-0.1,0.1,1.7
9.234,0.0,0.4,1.0
9.302,1.2,0.6,-0.1
9.31,0.6,0.0,-0.5
9.403,-0.1,-0.4,-0.9
9.412,0.5,-0.4,-1.4
9.415,0.2,-0.6,-1.8
9.509,0.7,0.0,-1.9
9.518,1.0,0.1,-1.7
9.599,1.0,0.2,-1.4
9.606,0.7,0.3,-1.2
9.609,0.5,0.1,-1.0
9.7,0.3,-0.0,-0.8
9.704,0.0,0.1,-0.6
9.8,-0.0,0.1,-0.3
9.804,-0.0,0.4,0.2
9.914,0.2,0.6,0.6
9.917,0.5,0.9,0.9
9.92,0.9,1.1,1.3
10.003,1.0,1.1,1.6
10.009,0.9,1.0,1.8
10.098,0.8,0.8,1.8
10.104,0.7,0.5,1.6
10.108,0.4,0.3,1.3
10.206,0.1,0.2,1.1
10.209,0.0,0.1,0.9
10.309,0.3,-0.2,0.9
10.318,0.7,-0.4,0.6
10.33,0.4,-0.9,-0.2
10.408,-0.1,-1.1,-1.4
10.411,-0.6,-1.1,-2.6
10.503,-0.7,-1.1,-3.3
10.507,-0.5,-0.9,-3.4
10.51,-0.6,-0.6,-3.1
10.603,-0.3,-0.5,-2.7
10.606,0.1,-0.3,-2.2
10.714,0.1,-0.3,-1.6
10.717,0.1,-0.2,-0.7
10.728,0.1,0.0,0.3
10.801,0.5,0.3,1.1
10.81,0.8,0.6,1.7
10.909,1.0,0.7,2.2
10.913,0.6,0.8,2.6
10.916,-0.1,0.7,2.8
11.008,-0.6,0.6,2.8
11.011,0.9,0.9,2.5
11.112,1.7,1.0,1.7
11.126,0.9,1.3,1.1
11.129,-0.8,1.1,0.7
11.204,-1.6,0.6,0.3
11.208,-1.3,0.0,-0.1
11.301,-0.1,-0.0,-0.5
11.304,0.6,-0.2,-0.8
11.308,0.6,-0.7,-1.1
11.403,0.1,-1.1,-1.3
11.41,-0.5,-0.9,-1.6
11.503,-0.3,-0.6,-1.7
11.514,-0.0,-0.3,-1.7
11.601,0.4,0.0,-1.6
11.609,0.8,0.2,-1.3
11.614,0.6,0.4,-1.0
11.703,0.3,0.6,-0.6
11.709,1.4,0.9,-0.5
11.801,2.0,1.2,-0.4
11.804,1.5,1.3,-0.4
11.811,1.0,1.3,-0.1
11.922,1.2,1.3,0.4
11.927,1.4,1.2,1.0
12.004,1.5,1.0,1.6
12.009,2.0,0.8,2.0
12.014,2.0,0.7,1.8
12.099,2.1,0.5,1.3
12.102,1.5,0.3,0.7
12.206,0.5,-0.2,0.3
12.209,-0.5,-0.6,-0.1
12.217,-0.9,-0.7,-0.4
12.303,-0.8,-0.9,-0.6
12.307,-0.8,-0.9,-0.7
12.397,-0.9,-0.8,-0.9
12.405,-1.1,-0.6,-1.0
12.409,-1.1,-0.1,-1.0
12.499,-0.5,0.2,-0.6
12.502,0.5,0.4,-0.1
12.61,1.5,0.8,0.4
12.618,2.0,0.9,0.8
12.632,2.1,1.0,1.2
12.702,1.7,0.9,1.4
12.705,1.4,0.7,1.3
12.797,0.7,0.2,0.8
12.804,-0.4,0.2,0.2
12.808,-1.4,0.1,-0.2
12.912,-1.4,-0.0,0.0
12.916,-0.3,0.3,0.4
13.016,0.3,1.0,0.1
13.019,-0.4,1.0,-0.6
13.036,0.0,0.4,-0.9
13.1,0.9,0.2,-0.9
13.103,1.2,0.3,-1.0
13.199,1.8,0.4,-1.2
13.202,2.1,0.2,-1.1
13.298,1.9,0.1,-0.8
13.301,1.5,0.1,-0.6
13.304,1.3,-0.0,-0.4
13.407,1.2,0.0,-0.4
13.425,0.9,-0.0,-0.6
13.501,0.6,0.1,-0.8
13.504,0.4,0.2,-0.8
13.511,0.2,0.2,-0.5
13.599,-0.1,0.3,-0.1
13.605,-0.2,0.2,0.4
13.702,-0.3,0.4,1.0
13.706,-0.4,0.5,1.9
13.709,-0.6,0.1,2.6
13.815,-0.8,-0.1,3.0
13.827,-0.3,-0.6,2.7
13.897,0.5,-0.6,1.7
13.9,0.6,0.1,0.6
13.914,-0.8,-0.6,-0.4
14.001,-2.3,-0.8,-1.0
14.01,-2.8,-0.8,-1.4
14.097,-2.4,-0.6,-1.6
14.104,-1.7,-0.4,-1.4
14.108,-0.9,-0.3,-1.0
14.221,-0.4,-0.1,-0.5
14.224,0.2,0.3,0.2
14.336,1.0,0.4,0.8
14.339,1.5,0.6,0.9
14.343,0.8,0.5,0.6
14.408,0.0,0.1,0.7
14.411,0.1,0.1,0.7
14.509,0.3,0.1,0.9
14.518,0.3,0.2,0.8
14.521,-0.1,-0.0,0.3
14.6,-0.8,0.2,-0.0
14.609,-0.9,-0.1,-0.1
14.7,-0.2,0.3,0.1
14.71,1.1,0.8,-0.2
14.713,2.0,0.8,-0.8
14.796,1.8,0.2,-1.5
14.799,1.0,-0.0,-2.0
14.918,0.4,-0.3,-2.2
14.921,-0.2,-0.3,-2.2
15.0,-0.5,-0.3,-1.8
15.004,-0.3,0.1,-1.2
15.008,0.3,0.4,-0.7
15.11,0.6,0.5,-0.2
15.115,0.2,0.4,0.4
15.199,-0.4,0.1,0.9
15.207,-0.8,-0.0,1.3
15.21,-0.5,0.2,1.8
15.342,-0.1,0.2,2.3
15.347,0.0,0.3,2.7
15.427,0.1,0.3,2.8
15.434,0.4,0.3,2.6
15.438,0.9,0.2,2.1
15.503,1.4,0.0,1.2
15.506,1.4,-0.4,0.3
15.596,0.3,-0.9,-0.9
15.599,-0.8,-0.9,-2.1
15.603,-1.5,-0.9,-3.0
15.707,-1.7,-0.9,-3.4
15.724,-1.3,-0.7,-3.4
15.8,-0.6,-0.5,-3.1
15.803,0.2,-0.4,-2.8
15.811,0.5,-0.4,-2.3
15.924,0.5,-0.4,-1.6
15.927,0.3,-0.5,-0.7
16.008,-0.1,-0.3,0.3
16.012,0.0,-0.1,1.3
16.015,1.0,0.2,2.2
16.111,2.2,0.4,2.8
16.122,1.4,0.5,2.9
16.199,-0.2,0.5,2.7
16.203,-1.4,0.4,2.3
16.213,-1.6,0.5,2.2
16.314,-1.0,0.5,2.2
16.322,-0.4,0.4,2.1
16.42,-0.1,0.1,1.6
16.427,0.2,0.2,0.9
16.511,0.8,0.0,-0.1
16.53,1.0,-0.2,-1.0
16.533,1.4,0.3,-1.6
16.537,1.7,0.2,-1.8
16.596,1.5,-0.2,-1.9
16.721,1.3,-0.5,-1.9
16.724,1.2,-0.5,-1.9
16.732,1.2,-0.3,-2.0
16.813,1.0,-0.1,-2.0
16.816,0.9,0.3,-1.8
16.825,1.1,0.5,-1.3
16.899,1.4,0.8,-0.7
16.909,1.6,0.9,-0.3
17.003,1.7,1.2,-0.2
17.006,2.0,1.4,-0.3
17.122,2.3,1.7,-0.4
17.125,2.2,1.7,-0.3
17.129,1.3,1.4,0.1
17.239,-0.1,0.7,0.2
17.243,0.1,1.4,0.5
17.255,1.4,1.4,0.5
17.331,2.3,1.1,0.9
17.335,1.8,0.6,1.3
17.422,1.1,0.1,0.9
17.426,1.7,0.0,1.0
17.502,1.7,0.2,0.6
17.509,1.6,0.3,0.4
17.512,1.4,0.3,0.3
17.61,1.5,0.4,0.3
17.613,1.9,0.7,0.2
17.696,2.7,0.9,-0.1
17.703,3.0,1.1,-0.4
17.706,2.7,1.1,-0.5
17.823,2.6,1.0,-0.3
17.827,2.6,0.9,-0.2
17.933,2.3,0.5,-0.1
17.936,1.6,0.4,-0.2
17.939,1.3,0.4,-0.3
18.037,1.3,0.6,-0.3
18.054,1.5,0.8,-0.2
18.057,1.7,0.9,0.1
18.128,1.8,0.8,0.2
18.131,1.6,0.5,0.2
18.191,1.3,0.1,0.0
18.194,0.9,0.1,-0.2
18.328,0.6,-0.1,-0.2
18.336,0.4,-0.2,-0.2
18.443,0.9,0.1,-0.2
18.446,1.2,0.1,-0.4
18.457,0.8,-0.2,-0.5
18.461,-0.0,-0.5,-0.5
18.529,-0.3,-0.3,-0.4
18.534,0.2,-0.2,-0.3
18.618,0.4,-0.1,-0.2
18.625,0.2,-0.1,-0.0
18.725,-0.1,-0.1,0.2
18.73,-0.3,0.1,0.6
18.733,-0.2,0.1,0.9
18.857,0.1,0.0,1.0
18.86,0.8,0.1,0.9
18.925,1.1,0.1,0.5
18.928,0.6,0.0,0.0
18.935,0.1,-0.1,-0.5
19.022,0.2,-0.1,-0.8
19.026,1.3,-0.0,-0.7
19.136,2.4,0.0,-0.5
19.139,3.2,-0.0,-0.6
19.142,2.8,-0.5,-1.5
19.23,3.6,-1.0,-2.1
19.264,3.9,-2.1,-1.9
19.321,5.1,-2.6,-0.9
19.324,2.9,-2.1,-0.0
19.327,2.8,-2.1,0.5
19.424,1.9,-1.3,0.9
19.435,0.8,-0.6,1.3
19.53,-0.7,0.1,1.7
19.534,-0.7,1.1,1.7
19.546,-0.9,1.9,1.5
19.634,-0.4,2.1,1.2
19.637,-0.2,2.0,1.1
19.73,1.8,-1.0,0.0
19.733,-1.5,0.6,-0.8
19.736,-0.7,0.6,-0.7
19.827,0.3,0.8,-0.1
19.83,-0.3,0.4,-0.8
19.933,-0.3,0.2,-0.9
19.936,0.5,0.6,-1.0
19.958,1.1,0.6,-1.1
20.027,0.4,0.6,-1.5
20.031,1.2,-0.1,-1.7
20.122,-0.5,-0.4,-1.1
20.125,0.1,-0.7,-0.8
20.225,-0.4,-0.8,-0.6
20.229,-0.1,-0.6,-0.2
20.232,0.2,-0.2,0.0
20.338,0.3,-0.1,0.0
20.349,0.5,0.0,-0.1
20.428,1.6,-0.0,-0.4
20.431,-0.2,-1.0,-1.0
20.44,-1.5,0.0,-1.1
20.522,-0.3,-1.1,-1.2
20.525,-0.4,-0.5,-1.0
20.62,1.0,-0.5,0.4
20.627,0.8,0.3,1.5
20.637,-2.0,0.1,1.9
20.739,-1.2,0.7,2.8
20.754,-0.1,0.2,2.7
20.821,-1.3,0.3,2.8
20.828,-4.3,0.2,2.0
20.832,-5.1,0.1,0.8
20.93,7.5,-1.3,1.3
20.933,-2.5,-1.7,0.7
21.029,0.0,-2.6,-1.9
21.032,1.2,-2.2,-0.4
21.039,0.8,-2.3,-0.3
21.139,-0.5,-1.5,0.1
21.149,0.2,-1.0,-0.1
21.225,-0.3,0.5,-0.3
21.231,0.0,1.3,-0.1
21.234,0.1,1.8,-0.1
21.297,-0.0,2.0,-0.1
21.306,0.0,1.9,-0.0
21.414,0.4,1.8,-0.0
21.422,1.8,1.1,-0.3
21.548,1.1,0.7,-0.6
21.563,0.2,0.3,-0.3
21.566,-0.6,-0.4,0.1
21.634,-0.3,-0.8,-0.0
21.637,-0.4,-0.9,0.1
21.64,-0.3,-0.7,0.1
21.728,-0.9,-0.6,0.2
21.731,-0.6,-1.0,0.4
21.831,-0.4,-1.1,0.5
21.84,-0.4,-1.1,0.7
21.925,-0.1,-0.9,0.8
21.931,0.4,-0.7,0.8
21.934,1.0,-1.0,0.8
22.027,0.9,-2.0,0.9
22.031,-0.8,-2.0,0.4
22.128,0.2,-2.6,0.6
22.133,0.2,-2.4,-0.4
22.138,-0.4,-2.2,-0.9
22.232,-1.6,-1.9,-2.2
22.236,-1.4,-1.5,-2.5
22.32,-1.5,-0.2,-1.4
22.323,-1.5,1.3,-0.2
22.326,-0.2,2.4,0.8
22.426,0.9,3.4,1.3
22.429,1.2,2.0,1.4
22.527,0.4,2.3,1.0
22.531,0.5,0.9,1.1
22.534,0.3,-1.9,0.3
22.639,-0.5,-0.3,1.2
22.65,1.1,-2.0,0.9
22.724,1.7,-1.6,0.7
22.728,1.3,-1.9,0.9
22.731,1.2,-1.4,0.7
22.801,1.5,-1.4,1.2
22.804,0.3,-0.3,0.6
22.919,0.4,0.7,0.1
22.926,0.5,1.1,-0.4
23.03,2.1,1.3,-0.5
23.033,0.7,1.2,-0.8
23.059,0.2,1.1,-0.7
23.125,-0.9,0.8,-0.6
23.128,-1.9,0.7,-0.4
23.131,-1.1,0.9,-0.6
23.225,-0.8,0.7,-0.5
23.229,-0.6,0.5,-0.6
23.319,-0.5,0.3,-0.6
23.322,-0.3,0.1,-0.3
23.358,-0.3,0.3,-0.1
23.449,0.1,-0.1,0.2
23.453,0.5,-0.6,0.2
23.525,0.6,-0.9,0.6
23.529,0.8,-1.3,0.8
23.636,0.8,-1.6,1.0
23.639,1.0,-1.8,1.0
23.643,1.1,-1.7,0.6
23.724,0.8,-1.2,0.4
23.731,0.9,-0.7,0.2
23.833,0.5,-0.2,0.0
23.844,-0.1,0.1,0.1
23.847,-0.3,0.1,0.5
23.927,0.0,0.0,0.7
23.935,-0.8,0.2,0.9
24.023,1.2,0.5,1.0
24.03,1.3,-0.8,0.4
24.033,-0.5,-0.9,0.9
24.134,0.5,-1.3,1.1
24.138,-1.6,-0.8,1.4
24.222,-1.8,-0.6,1.5
24.225,-0.9,-0.5,2.1
24.228,3.9,0.2,3.3
24.359,-0.3,-0.3,3.0
24.362,0.8,0.0,2.7
24.425,1.0,0.6,2.6
24.428,0.1,0.6,2.8
24.431,0.6,0.4,2.8
24.505,0.1,0.3,1.2
24.514,-1.4,0.3,0.3
24.622,-2.0,0.2,-0.3
24.625,-2.3,0.6,-0.3
24.726,-2.1,1.2,-0.0
24.734,-2.9,1.6,0.4
24.739,-2.5,2.3,0.9
24.819,0.1,2.8,0.8
24.832,1.8,2.8,0.2
24.836,0.8,2.0,0.2
24.929,-0.1,2.0,0.7
24.94,0.5,2.1,0.9
25.02,-0.0,1.8,1.0
25.023,0.4,2.0,1.2
25.03,0.4,2.0,1.3
25.121,0.3,2.2,1.4
25.129,2.2,2.6,1.7
25.2,6.4,1.3,1.0
25.203,-1.3,0.1,0.0
25.333,-2.4,-0.3,-1.0
25.346,-0.4,-0.6,-0.4
25.432,-0.0,-1.0,-0.5
25.435,-0.0,-2.3,-1.5
25.443,0.2,-1.9,-0.4
25.519,-1.3,-1.1,0.4
25.522,-1.1,-1.4,0.2
25.525,-1.1,-0.8,0.2
25.621,-0.3,-0.2,0.2
25.624,-0.2,0.2,0.2
25.738,-0.1,0.5,0.3
25.749,0.6,0.5,0.3
25.752,0.5,-0.1,0.5
25.827,-1.5,-1.1,-0.7
25.83,-3.1,-1.4,-1.9
25.918,-0.9,-1.4,-2.3
25.929,0.2,-1.2,-1.8
25.933,0.0,-0.6,-0.9
26.02,0.3,0.4,-0.0
26.023,0.3,1.4,0.6
26.129,-0.0,1.5,1.1
26.142,0.3,2.1,1.6
26.146,0.8,2.1,1.9
26.229,0.5,2.4,2.1
26.233,-2.5,2.5,1.9
26.328,-0.1,-2.4,0.3
26.331,1.8,1.6,-2.4
26.334,-0.3,-1.5,-1.1
26.434,-0.3,-0.6,0.0
26.437,0.4,-0.6,0.4
26.524,0.1,-0.2,0.2
26.529,-0.5,0.7,0.3
26.536,-0.1,0.6,0.6
26.601,0.0,0.5,0.7
26.607,-0.1,0.2,0.5
26.718,0.2,-0.4,0.2
26.721,-0.7,-0.4,-0.2
26.836,-3.9,-1.1,-1.8
26.839,-0.6,-1.4,-1.8
26.843,-0.4,-1.8,-1.3
26.921,-0.3,-0.4,-1.0
26.924,0.7,0.5,-0.3
27.025,1.7,1.4,0.3
27.029,1.6,2.1,1.1
27.036,4.8,4.1,3.3
27.121,0.0,-1.8,-0.6
27.124,-0.5,-0.9,-0.5
27.227,-2.2,-1.0,-0.4
27.23,0.8,-0.9,0.2
27.241,-0.2,-0.3,0.2
27.321,0.1,-0.2,0.3
27.324,0.0,-0.2,-0.1
27.421,-0.9,-0.0,0.3
27.424,-0.6,-0.3,0.1
27.434,-0.6,-0.4,-0.1
27.529,0.2,-1.5,-0.1
27.532,-0.6,-1.5,0.6
27.635,-0.1,-0.9,-0.2
27.639,-0.2,-1.2,-1.3
27.655,0.5,-0.8,-1.3
27.724,-0.2,0.3,-1.0
27.728,-0.7,1.1,-0.4
27.824,0.3,2.1,0.8
27.828,0.5,2.2,1.4
27.831,0.5,1.0,-0.3
27.92,-1.6,-2.7,-1.5
27.924,-1.6,-0.1,0.4
28.034,1.0,-0.6,-0.7
28.045,0.3,-0.9,0.0
28.048,0.4,-1.2,0.5
28.121,1.1,-1.1,0.9
28.124,0.3,-0.6,0.9
28.225,-3.4,0.3,0.4
28.229,-0.6,0.9,0.9
28.235,0.1,0.3,0.9
28.321,-0.5,-0.4,0.8
28.328,0.2,-1.8,0.4
28.424,1.8,-2.3,-0.3
28.436,-0.5,-2.2,-0.7
28.526,-2.5,-1.4,-1.2
28.53,-2.7,-1.1,-1.0
28.533,-0.8,-1.1,-0.1
28.626,0.6,-1.6,0.5
28.629,0.8,-2.2,0.5
28.722,0.2,-2.3,0.5
28.726,0.2,-2.4,0.7
28.729,1.1,-1.8,1.3
28.846,1.5,-1.3,1.6
28.854,2.2,-0.6,1.7
28.924,1.0,-1.2,1.8
28.927,1.9,-1.3,1.5
28.931,2.2,-1.0,1.5
29.024,2.3,-0.6,1.5
29.028,1.0,-0.1,1.4
29.128,0.7,0.5,1.6
29.136,0.9,0.4,2.0
29.139,0.5,0.5,2.4
29.223,1.3,1.0,2.5
29.226,3.7,1.2,0.7
29.322,3.2,0.1,0.9
29.325,-0.7,0.7,0.9
29.332,0.7,0.5,1.0
29.423,0.2,0.6,1.0
29.431,-0.0,0.2,0.9
29.539,0.6,0.2,0.9
29.543,0.5,0.1,0.7
29.555,-0.3,0.2,0.7
29.62,0.2,0.5,0.6
29.628,-0.5,0.1,0.5
29.725,0.4,0.2,0.3
29.728,0.7,0.3,0.2
29.731,0.4,0.2,0.1
29.826,0.1,0.1,0.1
29.829,0.3,-0.0,0.1
29.931,0.1,-0.2,0.1
29.934,0.0,-0.3,0.1
29.945,0.7,-0.0,0.2
30.023,0.0,-0.3,-0.1
30.029,-0.8,-0.6,-0.4
30.116,-1.2,-0.8,-1.7
30.122,-0.5,-0.6,-2.2
30.223,-1.6,-0.5,-2.5
30.232,-2.1,0.2,-2.3
30.251,-1.8,1.3,-1.6
30.333,-0.0,2.9,-0.6
30.344,0.4,4.1,0.4
30.422,0.3,4.8,1.4
30.43,-0.7,4.6,2.1
30.434,-1.0,3.0,2.0
30.53,0.1,2.3,1.4
30.534,3.9,0.8,0.7
30.619,0.5,-1.2,-1.1
30.622,-1.0,0.1,-0.7
30.63,-0.4,-1.1,-0.6
30.728,-0.4,-0.7,0.2
30.748,-0.5,-1.6,0.3
30.826,-0.6,-1.4,0.5
30.829,-0.9,-1.9,-0.2
30.836,-0.7,-1.6,-0.2
30.928,0.4,-1.2,-0.3
30.932,-0.1,-0.1,-0.2
31.025,-0.7,0.3,0.1
31.028,0.2,0.5,0.2
31.035,0.1,0.6,1.1
31.146,0.1,0.4,1.5
31.149,0.1,-0.2,2.3
31.239,-0.8,-1.3,1.4
31.242,-0.2,-1.2,1.1
31.248,0.4,-1.1,-0.3
31.319,-0.2,-0.3,-1.1
31.323,-2.2,-0.3,-2.0
31.431,-0.6,0.1,-2.6
31.434,-0.1,0.4,-2.4
31.437,-0.1,0.2,-2.1
31.523,0.3,0.8,-1.2
31.527,0.1,0.8,-0.4
31.618,0.3,1.5,0.5
31.621,0.6,2.9,1.6
31.624,-1.6,3.0,1.6
31.719,-0.5,3.2,3.9
31.722,2.0,-1.2,0.6
31.834,0.1,0.5,-0.3
31.837,1.4,-0.5,-0.6
31.918,-0.9,-0.4,-0.4
31.921,-1.1,-0.4,0.1
31.933,-0.9,-0.4,0.2
32.024,-0.7,-0.3,-0.2
32.027,0.2,-0.1,-0.1
32.125,0.3,-0.5,-0.2
32.128,0.2,-0.6,-0.1
32.131,0.2,-0.7,-0.1
32.233,0.6,-0.8,0.0
32.236,1.3,-0.7,0.3
32.321,0.6,-0.8,0.3
32.324,0.9,-0.8,0.4
32.331,0.2,-0.7,0.6
32.423,-1.8,-0.2,0.4
32.429,-1.6,-0.1,-0.0
32.522,-2.1,0.7,0.5
32.525,-0.4,0.6,0.7
32.528,0.1,0.5,0.8
32.66,-0.3,-0.1,0.6
32.671,-0.4,-0.7,0.6
32.726,-0.2,-1.2,0.5
32.73,-0.2,-1.6,0.3
32.739,0.1,-1.9,0.4
32.814,-0.6,-2.4,0.3
32.817,-0.3,-2.6,0.6
32.923,0.1,-3.0,-0.1
32.926,0.4,-2.9,-0.1
32.93,0.7,-1.7,0.1
33.037,0.5,-0.9,0.3
33.048,0.4,0.1,0.7
33.117,0.4,0.2,0.9
33.124,0.8,0.3,1.0
33.127,0.4,0.2,0.9
33.219,0.4,0.1,0.8
33.224,0.9,0.0,0.6
33.321,1.7,-0.2,0.6
33.325,4.0,0.3,1.0
33.328,3.5,0.9,0.8
33.438,4.0,1.0,1.4
33.442,2.8,1.3,0.8
33.519,1.7,1.7,0.6
33.522,0.7,1.7,0.6
33.617,-1.3,1.1,0.5
33.628,-0.5,1.6,0.7
33.631,-0.7,1.6,0.9
33.726,-0.1,1.6,1.0
33.731,0.6,1.5,1.1
33.826,-1.4,0.9,1.1
33.844,-1.1,0.5,0.9
33.847,0.1,0.5,0.9
33.922,-0.4,0.2,0.8
33.925,-1.1,-0.1,0.7
34.024,-0.2,0.0,0.6
34.027,0.3,0.1,0.6
34.034,0.2,0.2,0.5
34.131,0.1,0.1,0.6
34.142,0.2,-0.0,0.6
34.217,0.1,-0.2,0.5
34.22,0.3,-0.3,0.4
34.229,-0.3,0.1,0.6
34.342,0.4,0.2,0.7
34.345,0.1,0.3,0.8
34.417,0.2,0.1,0.9
34.42,0.0,-0.2,0.5
34.423,-0.2,-0.0,0.4
34.531,-0.2,0.1,0.3
34.539,0.0,0.1,0.2
34.621,-0.2,-0.1,0.1
34.624,-0.4,-0.2,-0.2
34.63,-0.2,0.0,0.2
34.724,-0.0,-0.1,-0.1
34.73,0.2,0.2,0.5
34.804,0.1,0.6,0.8
34.807,-0.2,0.5,0.2
34.811,-0.2,0.4,0.2
34.922,0.2,0.4,0.2
35.02,0.1,-0.2,0.1
35.023,0.1,-0.8,-0.0
35.03,-0.2,-0.9,-0.7
35.124,-0.1,-0.4,-0.7
35.129,-0.0,-0.0,-0.2
35.133,-0.8,-0.1,1.4
35.224,0.2,-0.4,0.6
35.228,0.2,-0.3,-0.3
35.342,-0.8,-0.6,0.2
35.353,0.5,-0.1,0.4
35.365,0.9,0.2,0.7
35.419,-0.7,-0.2,0.5
35.428,0.1,0.3,0.6
35.517,0.1,0.1,0.1
35.524,-0.1,-0.4,-0.0
35.528,-0.0,-0.4,-0.0
35.626,0.3,-0.6,0.3
35.629,0.0,-0.3,0.2
35.71,0.1,-0.1,0.1
35.726,-0.2,-0.2,0.3
35.73,-0.3,-0.0,0.1
