accel_time_list,accel_x_list,accel_y_list,accel_z_list
0.002,0.9,4.0,9.5
0.011,1.4,3.5,9.2
0.102,1.2,4.2,9.0
0.109,0.6,4.0,8.9
0.211,1.1,4.4,8.6
0.214,1.1,3.6,9.1
0.217,0.3,3.5,8.8
0.303,0.6,3.5,8.6
0.306,0.2,3.2,7.7
0.407,-1.8,3.4,5.3
0.41,0.2,2.5,5.4
0.413,-0.9,3.7,3.8
0.502,-3.3,2.5,1.6
0.506,-5.1,-1.6,1.2
0.601,-9.8,-10.2,2.2
0.605,-10.6,-5.8,5.1
0.608,-13.1,-10.7,2.3
0.703,-13.6,-7.7,1.3
0.706,-14.4,-10.1,-0.9
0.8,-13.7,-6.5,-1.0
0.804,-12.4,-6.5,0.5
0.807,-11.4,-5.5,-0.8
0.902,-8.9,-6.3,-3.1
0.905,-8.0,-6.4,-4.0
1.0,-7.8,-7.0,-4.0
1.004,-7.9,-6.0,-2.3
1.012,-10.9,-3.9,2.2
1.102,-9.6,-2.9,1.6
1.119,-10.2,-4.6,-0.5
1.2,-10.2,-4.5,-1.1
1.204,-10.1,-4.2,-2.1
1.21,-9.7,-2.8,-1.4
1.302,-9.1,-2.1,-0.3
1.305,-8.7,-2.8,-0.6
1.4,-8.6,-3.2,-1.0
1.408,-8.8,-3.4,-1.2
1.412,-9.2,-3.1,-1.1
1.502,-9.2,-2.9,-0.7
1.513,-9.3,-3.0,-0.1
1.6,-9.1,-2.7,1.5
1.603,-9.4,-2.7,1.3
1.7,-9.1,-3.5,-0.2
1.704,-9.2,-3.0,-0.9
1.707,-9.2,-4.4,-1.2
1.802,-8.9,-3.6,-0.7
1.805,-9.5,-3.7,-0.5
1.9,-9.3,-3.4,-0.6
1.916,-9.7,-3.5,-0.9
1.919,-9.4,-3.6,-1.1
2.002,-9.6,-3.9,-0.7
2.005,-8.8,-3.5,-0.8
2.1,-9.2,-3.2,-0.2
2.104,-9.0,-3.6,-0.1
2.111,-9.3,-3.6,0.6
2.201,-9.8,-3.8,0.8
2.209,-10.0,-4.2,1.1
2.306,-9.9,-5.2,0.3
2.318,-9.2,-4.0,0.3
2.321,-7.3,-3.9,-1.1
2.401,-9.4,-3.1,-1.6
2.407,-5.5,-3.3,5.8
2.5,-8.6,-3.6,-0.4
2.508,-7.5,-3.5,-1.2
2.511,-8.2,-3.7,-1.2
2.602,-8.8,-3.5,-0.4
2.61,-9.6,-3.4,-0.3
2.7,-10.3,-4.0,-0.4
2.703,-13.4,-4.6,0.5
2.711,-16.0,-5.4,-2.4
2.802,-14.8,-3.0,-1.2
2.808,-12.0,-1.8,1.2
2.9,-9.2,-0.6,1.3
2.903,-10.1,-2.2,-2.4
2.914,-7.9,-4.1,-0.2
2.982,-8.7,-2.2,-1.2
2.985,-7.5,-3.8,-2.0
3.098,-7.2,-3.0,-1.9
3.101,-7.4,-1.7,-1.5
3.178,-7.5,-1.1,-1.1
3.181,-7.5,-1.2,-0.7
3.185,-8.2,-2.3,-0.7
3.281,-8.5,-5.4,-1.1
3.285,-7.3,-5.1,-0.9
3.377,-6.8,-5.7,1.0
3.38,-7.2,-5.0,1.7
3.475,-7.9,-4.5,1.0
3.48,-8.8,-4.4,0.3
3.487,-9.9,-4.2,-0.0
3.577,-12.0,-4.4,-0.0
3.586,-14.8,-4.4,-0.5
3.674,-17.9,-4.7,-1.4
3.682,-13.4,-4.7,-0.3
3.686,-9.6,-3.9,0.2
3.802,-9.9,-1.4,1.8
3.809,-6.7,-0.4,-0.1
3.902,-5.1,-0.5,-0.2
3.908,-5.9,-1.1,-0.4
3.912,-4.9,-2.2,-0.5
4.0,-5.9,-4.3,-1.4
4.003,-6.7,-4.7,-1.3
4.006,-7.7,-4.0,-0.7
4.105,-8.7,-3.8,-0.8
4.108,-8.3,-1.2,6.1
4.2,-10.2,-10.2,-0.9
4.211,-8.8,-4.1,-1.2
4.221,-10.2,-6.0,-2.9
4.305,-8.2,-5.1,-0.4
4.308,-9.2,-4.6,0.5
4.4,-11.2,-2.2,0.6
4.407,-14.5,-0.6,-0.3
4.412,-15.8,-2.3,-1.1
4.506,-14.8,-1.2,2.6
4.509,-11.8,-0.8,1.1
4.6,-8.2,-1.4,-1.3
4.611,-7.1,-3.1,-1.0
4.614,-8.9,-3.9,-2.5
4.705,-8.8,-3.5,-2.6
4.708,-7.3,-2.3,-1.2
4.8,-6.5,-1.3,-0.6
4.803,-5.4,-1.0,-0.4
4.806,-5.8,-1.4,-0.7
4.906,-6.9,-2.4,-0.6
4.909,-8.5,-3.2,-1.4
5.01,-8.8,-3.2,-1.5
5.013,-9.9,-3.1,-1.9
5.103,-9.8,-3.5,-1.1
5.106,-9.8,-3.5,-0.8
5.11,-12.2,-3.6,-0.7
5.201,-14.6,-4.1,-1.5
5.205,-13.8,-4.3,-1.6
5.3,-16.8,-4.8,-1.6
5.304,-11.5,-5.3,0.2
5.307,-9.1,-3.0,0.6
5.401,-12.0,-0.5,-0.8
5.405,-9.0,-1.0,-1.1
5.499,-7.3,-1.6,-0.4
5.502,-6.7,-2.6,-0.6
5.511,-5.8,-3.1,-0.9
5.601,-5.7,-2.6,-0.7
5.608,-6.1,-2.4,-0.2
5.699,-6.3,-2.5,-0.1
5.703,-7.4,-2.8,-0.1
5.714,-7.9,-2.9,-0.1
5.8,-8.1,-3.1,0.1
5.804,-8.2,-2.8,0.3
5.899,-8.6,-2.4,0.1
5.902,-7.8,-3.6,-0.5
5.905,-9.5,-6.1,-1.9
6.001,-11.2,-8.2,-2.1
6.004,-11.7,-10.0,-0.5
6.099,-11.8,-3.9,-2.1
6.107,-10.4,-3.2,-1.3
6.119,-7.3,-2.6,-1.5
6.204,-8.8,-2.4,-2.3
6.207,-8.9,-3.4,-2.5
6.276,-9.0,-3.7,-2.7
6.279,-8.1,-2.8,-2.6
6.282,-9.0,-2.4,-2.5
6.374,-9.5,-3.0,-2.3
6.499,-9.7,-3.1,-2.3
6.503,-9.9,-2.6,-2.2
6.519,-9.5,-2.3,-1.7
6.602,-8.8,-2.4,-1.5
6.611,-8.1,-2.5,-1.5
6.614,-8.3,-1.9,-1.6
6.703,-7.9,0.2,0.1
6.706,-12.3,-4.6,-1.1
6.799,-13.3,-1.1,-1.7
6.803,-15.6,-1.3,-2.3
6.806,-17.7,-1.5,-2.7
6.901,-11.7,-0.7,-0.2
6.912,-8.0,-0.5,0.4
6.999,-10.0,-0.8,-1.2
7.006,-10.1,-2.3,-3.1
7.009,-8.1,-1.2,-1.6
7.101,-7.1,0.9,0.3
7.104,-7.0,-0.4,1.2
7.199,-8.3,-1.3,0.4
7.202,-7.1,-3.4,-1.2
7.206,-8.1,-3.3,-1.9
7.308,-9.5,-2.5,0.2
7.312,-8.8,-2.1,-0.2
7.398,-7.8,-2.1,-1.2
7.402,-7.4,-2.3,-1.3
7.405,-7.7,-2.1,-0.7
7.501,-8.7,-5.1,-1.0
7.504,-13.0,-3.5,-0.5
7.599,-14.6,-5.6,-1.9
7.602,-15.2,-4.3,-2.4
7.606,-10.0,-1.3,-1.3
7.7,-9.8,-0.4,-1.9
7.704,-10.5,-0.0,-1.7
7.799,-8.6,-1.9,-1.4
7.802,-8.9,-2.4,-1.1
7.806,-7.0,-2.6,-1.6
7.902,-7.1,-2.7,-2.0
7.906,-7.3,-2.6,-1.8
7.999,-7.9,-2.4,-1.7
8.006,-8.3,-1.9,-1.4
8.018,-9.1,-1.7,-1.3
8.101,-9.2,-1.9,-1.3
8.109,-9.0,-2.2,-1.3
8.198,-8.9,-2.5,-1.3
8.201,-9.1,-3.0,-0.4
8.303,-9.7,-3.8,-1.1
8.307,-11.7,-3.8,-0.7
8.31,-14.3,-2.4,-2.0
8.401,-18.2,-1.9,-2.6
8.408,-14.0,-3.4,-1.1
8.499,-9.7,-3.1,0.0
8.503,-9.7,-0.5,0.4
8.506,-9.4,-0.4,-0.9
8.582,-7.5,-1.6,-1.4
8.586,-6.3,-2.6,-1.5
8.672,-5.3,-3.0,-1.7
8.675,-4.1,-2.6,-1.9
8.774,-4.9,-3.0,-1.1
8.777,-6.7,-2.6,-0.5
8.789,-7.9,-2.9,-0.1
8.877,-8.1,-1.8,7.9
8.88,-8.7,-11.4,-0.8
8.98,-6.9,-5.2,-1.9
8.984,-9.3,-5.6,-2.8
8.987,-10.9,-4.8,-2.7
9.076,-10.7,-0.9,2.3
9.079,-15.9,-4.5,1.7
9.174,-14.2,-5.2,1.1
9.178,-12.6,-6.5,-2.0
9.2,-9.2,-4.1,-2.6
9.291,-7.6,-3.0,-2.0
9.298,-10.1,-1.1,-0.6
9.398,-7.6,-1.4,0.6
9.404,-7.6,-1.2,0.4
9.408,-6.8,-2.1,-0.9
9.503,-6.7,-2.8,-1.6
9.508,-7.2,-2.5,-1.8
9.512,-8.1,-2.3,-1.6
9.621,-8.2,-2.0,-1.3
9.624,-8.6,-2.2,-1.0
9.699,-8.3,-2.5,-0.7
9.702,-7.7,-2.6,-0.7
9.705,-7.3,-5.5,-1.9
9.8,-8.1,-5.8,-1.2
9.803,-11.4,-4.4,-0.3
9.898,-13.6,-3.5,0.0
9.901,-15.4,-3.1,-0.5
9.998,-14.9,-2.9,-0.7
10.01,-15.9,-3.4,-1.6
10.02,-10.3,-3.7,-0.6
10.1,-8.8,-2.0,-0.4
10.103,-10.6,-1.3,-0.8
10.217,-8.7,-2.4,-0.6
10.225,-7.1,-2.6,-0.8
10.228,-5.6,-2.2,-0.7
10.275,-4.6,-2.0,-0.8
10.285,-4.3,-1.6,-1.1
10.371,-5.3,-2.1,-1.0
10.375,-7.1,-3.0,-1.0
10.505,-8.6,-4.0,-1.0
10.509,-9.3,-4.4,-0.6
10.512,-9.8,-4.5,0.3
10.577,-9.2,-3.9,1.1
10.582,-10.0,-1.9,2.3
10.585,-7.7,-5.0,5.0
10.675,-8.1,-7.6,-0.6
10.678,-9.3,-6.2,-1.1
10.811,-10.4,-5.7,-1.6
10.815,-12.3,-4.0,-1.4
10.9,-12.8,-3.3,-0.8
10.907,-8.6,-2.9,-0.3
10.912,-7.7,-2.5,-0.4
10.998,-8.8,-2.9,-1.1
11.006,-9.7,-3.7,-1.8
11.009,-9.8,-4.1,-2.6
11.1,-9.9,-2.9,-2.2
11.121,-9.3,-2.1,-1.8
11.198,-9.0,-2.1,-1.7
11.201,-8.9,-2.6,-2.0
11.205,-8.7,-2.7,-2.1
11.312,-9.2,-2.4,-2.0
11.316,-9.0,-2.2,-1.6
11.398,-8.6,-2.2,-1.5
11.402,-8.3,-2.3,-1.7
11.405,-8.5,-2.6,-2.5
11.499,-9.9,-3.6,-1.4
11.519,-10.0,-3.9,-0.4
11.602,-12.8,-4.5,-0.3
11.609,-14.0,-4.3,-1.5
11.677,-17.1,-3.3,-2.0
11.682,-16.3,-2.1,-1.5
11.691,-12.1,-0.9,-0.5
11.782,-9.9,0.8,0.1
11.786,-8.0,1.1,0.2
11.881,-6.8,-1.4,-1.4
11.896,-6.3,-1.7,-2.0
11.981,-7.3,-1.2,-1.4
11.984,-7.1,-2.6,-1.5
11.991,-7.2,-1.8,-0.8
12.082,-7.3,-2.4,-0.7
12.086,-7.2,-2.2,-0.5
12.185,-7.0,-2.5,-0.3
12.19,-7.9,-3.1,-0.1
12.193,-9.2,-3.2,0.4
12.276,-10.3,-2.5,0.8
12.29,-10.7,-2.5,0.6
12.398,-11.7,-1.4,1.1
12.402,-13.1,-3.0,-0.8
12.413,-15.3,-2.6,-0.1
12.501,-14.4,-5.3,-0.8
12.504,-10.8,-4.5,-0.8
12.512,-9.4,-2.6,-0.8
12.599,-10.2,-1.8,-0.8
12.61,-9.0,-1.9,-0.6
12.698,-7.6,-2.2,-0.6
12.701,-6.7,-2.2,-0.7
12.704,-6.1,-2.4,-1.0
12.801,-6.1,-2.6,-1.0
12.804,-6.9,-2.6,-1.3
12.897,-7.8,-2.5,-1.3
12.901,-8.7,-2.5,-1.1
12.904,-9.0,-2.7,-1.0
12.999,-9.7,-2.7,-1.3
13.009,-9.6,-2.6,-1.1
13.101,-9.4,-3.2,-0.3
13.104,-9.2,-3.3,-0.2
13.108,-10.7,-2.8,-0.6
13.203,-13.3,-3.4,-1.1
13.206,-16.5,-3.7,-1.8
13.3,-14.9,-4.7,-1.0
13.309,-10.1,-4.1,0.1
13.372,-7.9,-1.9,0.7
13.375,-10.1,-0.6,-1.1
13.394,-9.4,-0.5,-1.3
13.473,-7.5,-1.7,-1.3
13.476,-6.3,-3.0,-0.6
13.598,-5.8,-3.4,-0.1
13.601,-5.7,-2.7,0.2
13.7,-5.8,-2.6,0.1
13.704,-6.7,-2.5,0.3
13.707,-10.5,-4.1,2.2
13.797,-9.4,-6.5,0.9
13.801,-7.3,-4.3,-0.5
13.814,-9.8,-3.4,-1.2
13.902,-9.3,-3.7,-0.5
13.906,-8.9,-2.4,0.2
13.997,-9.2,-2.5,1.3
14.005,-9.8,-3.4,1.0
14.008,-10.8,-4.1,0.0
14.099,-12.9,-4.0,-1.4
14.103,-14.6,-3.3,-1.5
14.201,-12.1,-3.3,0.1
14.213,-10.1,0.3,-0.7
14.216,-9.8,0.8,0.1
14.299,-11.6,-1.4,-1.1
14.302,-8.6,-0.4,-1.5
14.397,-7.3,-1.5,-1.1
14.401,-6.9,-2.4,-1.0
14.404,-6.2,-3.2,-0.8
14.499,-7.3,-3.5,-0.4
14.502,-8.8,-3.3,-0.4
14.597,-9.5,-2.5,-1.9
14.62,-10.5,-2.1,-1.7
14.625,-9.0,-1.1,-0.8
14.704,-8.5,-1.9,-1.0
14.711,-8.3,-2.5,-0.9
14.772,-9.0,-2.9,-1.4
14.775,-9.8,-2.3,-2.5
14.896,-10.9,-1.9,-2.3
14.899,-10.3,-2.7,-2.2
14.985,-10.7,-2.7,-0.7
14.999,-11.9,-3.2,-1.1
15.003,-13.2,-3.9,-0.3
15.071,-13.3,-2.8,-1.4
15.074,-10.7,0.3,-1.6
15.176,-9.8,0.6,-1.2
15.179,-12.4,-1.3,-1.7
15.183,-11.5,-1.0,-1.3
15.276,-9.1,0.4,-1.1
15.279,-7.3,-0.3,-0.9
15.375,-5.7,-1.1,-0.7
15.393,-5.6,-1.5,-0.7
15.405,-6.0,-1.8,-0.8
15.481,-7.1,-2.4,-0.5
15.485,-9.0,-2.9,-0.2
15.572,-9.6,-3.0,-0.2
15.575,-9.1,-2.9,0.2
15.579,-9.3,-2.8,0.6
15.674,-8.8,-2.5,0.6
15.677,-8.7,-1.6,0.8
15.797,-8.5,-1.6,1.5
15.8,-8.6,-2.6,1.3
15.804,-9.8,-3.0,1.3
15.9,-10.0,-3.1,0.7
15.903,-10.9,-3.6,-0.3
15.907,-10.1,-3.1,-0.6
15.999,-9.5,-2.9,-0.9
16.002,-9.2,-3.1,-1.3
16.097,-9.4,-3.2,-1.5
16.1,-9.2,-3.2,-1.7
16.12,-8.9,-3.2,-1.8
16.199,-9.1,-3.5,-1.8
16.202,-9.5,-3.4,-2.2
16.3,-10.0,-3.4,-2.4
16.304,-9.8,-3.0,-2.4
16.307,-9.8,-3.0,-2.1
16.398,-9.9,-3.4,-2.1
16.402,-9.7,-3.5,-2.1
16.496,-10.2,-3.1,-2.3
16.507,-9.9,-2.8,-2.0
16.597,-9.9,-2.4,-2.0
16.606,-10.4,-2.4,-2.2
16.61,-9.9,-2.8,-1.8
16.7,-8.2,-2.6,-1.0
16.707,-9.3,-1.2,-0.5
16.774,-10.2,-0.3,0.7
16.782,-10.0,-1.9,-0.1
16.785,-9.0,-2.8,0.1
16.877,-9.4,-2.3,-0.4
16.889,-9.6,-1.7,-0.7
16.973,-9.2,-1.8,-0.3
16.976,-8.7,-2.4,0.0
17.096,-8.4,-2.6,1.4
17.099,-8.0,-2.3,0.1
17.108,-8.8,-3.5,-0.0
17.205,-10.2,-3.7,0.0
17.213,-12.7,-4.0,-0.4
17.217,-10.4,-3.7,-0.6
17.315,-9.4,-2.2,-0.2
17.318,-9.5,-1.9,-0.6
17.395,-10.1,-2.6,-0.7
17.399,-10.2,-3.2,-0.5
17.405,-8.9,-3.0,-0.4
17.498,-8.6,-2.5,-0.3
17.501,-8.7,-4.1,0.4
17.596,-9.1,-7.7,3.4
17.599,-11.0,-8.7,8.1
17.603,-12.3,-11.5,4.3
17.698,-10.4,-11.1,4.2
17.701,-8.4,-8.0,4.8
17.796,-4.5,-2.5,4.5
17.799,-3.9,-2.9,3.1
17.803,-2.1,-0.9,2.5
17.898,-3.1,-2.3,2.2
17.901,-3.2,-2.5,3.3
17.996,-5.0,-3.6,2.8
17.999,-5.3,-2.2,4.7
18.015,-7.5,-5.7,6.1
18.073,-6.8,-4.3,3.9
18.08,-5.4,-11.0,10.8
18.208,-3.6,-3.1,8.8
18.211,-4.7,-0.8,11.3
18.28,-4.5,1.0,9.0
18.284,-7.3,-0.5,8.2
18.294,-6.7,-1.1,7.0
18.371,-4.7,-1.8,9.1
18.376,-5.3,-1.9,7.3
18.473,-5.5,-1.4,8.2
18.477,-4.7,-2.1,8.3
18.571,-5.8,-1.4,7.4
18.576,-4.9,-1.7,8.9
18.579,-2.9,-1.7,9.2
18.681,-4.5,-2.0,8.8
18.686,-3.3,-2.6,7.2
18.771,-5.4,-0.3,8.5
18.774,-2.3,-1.5,9.5
18.785,-2.4,-1.3,9.0
18.873,-2.9,-1.9,9.1
18.876,-2.8,-1.5,9.1
18.971,-2.1,-0.3,9.9
18.977,-2.2,0.3,10.0
18.981,-1.0,1.7,11.2
19.099,-1.7,-1.2,9.7
19.107,-2.0,-2.1,9.7
19.198,-2.6,-1.3,9.4
19.201,-2.1,-2.4,8.1
19.234,-3.3,-0.5,9.2
19.323,0.8,-6.0,11.0
19.326,2.4,-5.7,7.0
19.329,2.8,-3.6,8.3
19.405,1.7,-1.4,7.6
19.408,-0.9,-1.2,8.6
19.496,-1.8,-0.6,8.6
19.499,-0.5,-1.3,8.7
19.503,1.4,0.8,7.8
19.61,3.2,0.4,6.6
19.613,1.0,1.0,6.9
19.696,-3.6,-0.2,12.5
19.702,-12.7,-3.0,6.1
19.706,-8.7,-2.2,6.8
19.799,-16.1,-12.1,14.7
19.808,-5.3,8.3,16.9
19.898,-4.5,-7.7,6.8
19.901,-4.5,1.9,9.5
19.997,-4.5,0.7,9.5
20.008,-5.0,-0.5,9.3
20.019,-1.7,-2.5,8.3
20.097,-3.8,-2.2,8.7
20.1,-3.3,-2.8,8.4
20.17,-4.1,-2.0,8.5
20.174,-4.4,-1.5,8.6
20.177,-3.7,-1.6,8.7
20.295,-4.0,-3.3,8.8
20.307,-2.4,-2.6,8.6
20.381,-3.7,-0.1,9.5
20.385,-2.2,0.5,10.0
20.388,-2.3,-0.7,9.5
20.496,-1.1,-0.2,9.5
20.499,-0.3,1.0,9.6
20.6,-2.2,0.3,9.7
20.607,0.1,-1.5,10.4
20.611,-0.5,-0.9,10.3
20.697,-1.0,-0.7,9.7
20.704,-1.7,-0.7,9.3
20.795,0.2,-1.7,7.9
20.798,5.1,-2.6,2.9
20.802,4.1,-4.2,10.3
20.899,4.7,-2.8,8.1
20.905,3.2,1.3,7.1
20.995,3.8,3.1,7.9
20.999,2.1,-0.6,5.4
21.006,-1.0,-0.3,9.9
21.097,-9.5,-0.6,6.3
21.108,-15.8,1.7,19.8
21.21,-8.5,-7.8,22.6
21.214,-11.3,12.7,11.8
21.219,-2.1,-6.4,7.8
21.297,2.2,-1.5,10.5
21.3,1.5,0.4,11.6
21.397,0.8,0.5,10.1
21.4,1.0,2.0,7.8
21.606,-2.6,6.6,8.8
21.614,-1.1,-5.5,10.2
21.626,-0.4,1.4,10.3
21.697,2.1,-5.8,8.7
21.704,-0.6,2.6,11.1
21.77,0.2,-5.0,10.0
21.773,6.5,3.1,10.7
21.777,2.8,-0.2,10.1
21.846,1.7,7.9,9.4
21.849,1.1,-4.0,14.9
21.927,2.3,-5.1,8.1
21.939,3.3,-2.1,9.5
22.035,2.6,-1.7,10.2
22.039,1.5,-0.5,9.5
22.043,3.7,-2.0,9.9
22.127,2.7,-2.1,9.6
22.136,4.0,0.7,10.4
22.14,2.9,-1.6,9.9
22.231,2.4,1.3,9.7
22.234,0.5,-2.0,-2.3
22.295,3.0,-4.7,3.4
22.306,5.7,0.9,2.8
22.315,5.1,6.7,10.4
22.406,6.4,1.7,9.7
22.41,4.7,0.7,8.6
22.47,5.2,0.9,10.0
22.473,4.6,2.5,8.6
22.477,3.2,2.7,11.9
22.595,2.1,-0.6,11.5
22.599,0.2,4.3,11.1
22.709,-6.2,-0.3,10.7
22.712,-6.0,2.2,9.8
22.723,-9.2,-2.3,6.3
22.797,-11.0,-0.4,7.4
22.8,-10.5,-1.9,5.5
22.895,-8.3,-3.7,4.9
22.909,-9.7,-14.2,11.6
22.914,-7.2,0.8,3.6
22.996,-8.4,-3.4,8.2
22.999,-9.4,6.2,8.9
23.096,-5.4,-1.2,7.2
23.1,-6.0,0.1,8.0
23.198,-8.3,0.6,7.2
23.201,-4.0,-1.8,8.1
23.204,-2.4,-1.8,8.4
23.296,-6.3,0.4,8.2
23.299,-5.3,-0.3,7.9
23.397,-6.2,0.8,8.5
23.405,-4.8,-0.3,8.5
23.417,-5.8,1.0,8.6
23.496,-8.3,0.9,6.6
23.5,-5.0,-0.7,7.8
23.595,-6.6,-0.2,7.6
23.598,-5.9,-0.8,7.8
23.606,-6.4,-0.3,6.7
23.696,-6.1,-0.4,8.1
23.699,-6.2,0.0,7.6
23.795,-6.5,-1.2,6.8
23.798,-5.5,1.9,9.4
23.815,-5.3,-0.2,7.5
23.899,-7.4,2.6,7.1
23.904,-3.9,-0.9,7.4
23.995,-5.0,-0.2,11.0
23.999,-3.7,-2.5,7.0
24.002,-2.7,-1.9,9.2
24.076,-4.8,1.6,10.2
24.08,-2.9,-1.2,9.3
24.194,-2.6,-0.6,9.7
24.217,-1.8,-1.3,10.5
24.271,-1.4,-1.1,12.9
24.278,1.8,4.6,9.4
24.281,2.1,-10.8,6.4
24.393,1.2,5.9,8.7
24.397,4.8,1.8,1.7
24.497,7.8,-2.8,1.1
24.5,6.1,-2.4,3.6
24.504,1.7,-2.7,6.6
24.595,-4.2,-0.6,9.0
24.606,-9.3,-0.6,9.5
24.616,-17.5,1.1,9.6
24.696,-11.4,-0.9,5.0
24.699,-11.8,1.3,5.8
24.796,-8.3,-6.4,12.0
24.811,-16.6,13.3,20.9
24.901,-2.6,-4.3,7.9
24.905,0.6,-1.6,11.7
24.909,-3.1,-0.2,9.2
24.985,-6.0,-0.2,7.4
24.989,-5.6,-0.7,7.7
25.069,-4.8,-0.0,7.9
25.075,-5.8,-0.2,7.6
25.196,-4.2,0.6,9.2
25.204,-5.0,-0.3,8.5
25.208,-4.7,-0.2,10.4
25.273,-4.9,-0.5,7.6
25.277,-4.7,0.4,9.1
25.284,-4.7,-1.8,7.0
25.382,-4.4,-1.0,8.4
25.385,-3.7,-0.7,6.7
25.474,-6.3,-0.8,9.4
25.478,-1.5,1.5,9.9
25.6,-3.5,-0.5,9.1
25.603,-4.0,-1.3,8.9
25.606,-3.0,-0.8,9.3
25.673,-3.1,-0.7,9.7
25.68,-1.5,-1.9,11.7
25.692,-0.1,-2.5,6.1
25.77,5.2,-1.2,8.4
25.773,4.1,-0.9,7.4
25.895,4.0,1.4,7.1
25.899,3.2,-1.8,7.3
26.002,-0.7,-5.1,7.9
26.005,-1.2,-2.3,7.0
26.008,-16.2,-5.6,13.8
26.094,-7.7,-4.3,4.3
26.098,-6.1,-6.2,3.3
26.109,-8.1,5.8,14.2
26.199,-8.3,0.8,13.1
26.203,-6.3,3.9,10.7
26.295,-1.2,-0.1,9.1
26.298,-1.4,1.1,11.9
26.307,-1.2,1.2,10.8
26.395,-0.7,2.7,12.4
26.399,-0.8,0.9,10.8
26.496,-2.1,1.7,9.1
26.514,-1.7,0.6,9.5
26.594,-2.1,1.4,9.0
26.598,-2.7,1.6,8.3
26.601,-1.6,1.6,10.1
26.697,-2.5,2.6,8.6
26.7,-1.9,1.3,9.4
26.794,-1.0,1.7,9.7
26.798,-1.1,2.0,9.2
26.801,0.1,2.8,9.9
26.896,0.5,2.6,9.4
26.907,0.4,1.9,7.0
26.998,3.8,3.9,8.7
27.001,2.3,3.1,8.2
27.005,4.0,5.2,8.5
27.101,1.6,1.3,7.9
27.104,7.8,4.9,11.5
27.194,3.7,4.0,8.7
27.199,3.1,5.8,7.2
27.204,6.1,0.8,5.8
27.288,7.6,-1.4,8.2
27.293,6.0,-2.6,5.1
27.392,9.2,-0.8,9.8
27.395,8.8,2.4,10.8
27.511,11.4,0.9,3.1
27.519,8.4,-2.7,5.9
27.612,9.4,1.5,4.5
27.616,9.7,4.7,2.1
27.619,9.0,6.0,3.9
27.622,5.2,3.2,12.4
27.725,5.6,2.0,7.9
27.729,1.4,-1.3,12.6
27.794,-2.1,-2.2,6.1
27.798,-0.3,0.1,7.2
27.802,-8.7,-24.9,26.4
27.898,0.7,10.1,14.4
27.901,4.4,-6.8,3.2
27.994,1.8,1.4,9.1
27.998,0.2,0.9,12.9
28.009,2.7,-0.2,9.7
28.104,1.3,-0.8,9.7
28.109,1.2,1.5,10.0
28.196,1.6,0.1,9.6
28.199,1.5,0.7,10.8
28.293,2.1,-0.0,9.8
28.297,1.3,0.2,9.9
28.304,2.6,0.7,10.4
28.402,1.0,0.8,10.3
28.407,1.0,1.2,9.4
28.493,1.3,0.8,10.1
28.497,0.4,1.5,8.4
28.504,-0.3,-0.7,9.8
28.595,-0.2,1.0,9.9
28.598,-0.8,0.8,10.0
28.694,-0.9,0.1,9.7
28.697,-1.1,0.3,10.0
28.7,0.4,0.3,7.1
28.796,1.7,-1.4,8.8
28.807,-2.3,2.5,9.9
28.893,-2.2,0.1,9.1
28.896,-1.9,0.1,9.1
28.906,-1.7,0.8,9.8
28.995,-1.2,0.7,10.2
28.999,3.5,-4.9,7.3
29.095,1.6,-3.8,8.9
29.098,-0.7,1.9,9.9
29.101,-1.4,0.5,10.6
29.195,-0.7,0.3,9.9
29.206,-0.5,1.2,9.5
29.294,0.4,3.8,10.3
29.297,0.3,1.3,8.8
29.304,1.2,0.3,9.5
29.4,1.9,3.7,10.1
29.403,1.0,0.8,10.2
29.494,0.1,-1.1,4.9
29.497,0.4,-5.5,8.0
29.5,4.0,-14.4,9.1
29.603,3.5,-6.0,12.5
29.606,4.5,1.8,7.4
29.698,3.9,2.9,4.9
29.701,3.4,9.0,7.2
29.793,5.0,6.5,6.3
29.797,2.0,2.9,8.3
29.801,-0.5,1.5,7.1
29.895,-3.1,0.7,4.8
29.898,-11.7,-1.1,9.9
29.993,-9.7,0.6,9.8
30.01,-7.6,-4.6,17.0
30.013,30.3,-4.6,10.8
30.102,-7.9,1.2,3.0
30.105,6.7,8.1,11.6
30.193,-7.6,-6.3,2.9
30.197,-2.3,2.8,12.5
30.201,-14.6,9.1,4.0
30.295,0.4,2.8,9.8
30.298,-2.4,-1.0,10.0
30.393,-4.8,-2.5,11.8
30.397,-3.0,-1.9,9.1
30.403,-3.1,1.0,9.0
30.496,-2.0,1.7,9.5
30.499,-0.7,2.9,10.0
30.593,-1.1,3.4,9.9
30.596,-2.0,3.1,9.7
30.604,-2.1,2.0,9.4
30.699,-2.2,2.2,9.6
30.702,-2.1,-1.3,6.6
30.818,-3.2,0.7,9.4
30.826,-1.1,-0.5,9.8
30.829,-2.6,0.0,9.5
30.896,-1.4,-1.0,9.0
30.903,-1.9,-0.0,9.3
30.906,-0.2,-0.3,10.0
30.993,-2.2,0.2,9.2
31.0,0.5,0.4,9.9
31.094,-0.2,0.6,12.5
31.106,0.5,0.6,9.8
31.193,0.6,-0.5,9.4
31.196,2.1,2.9,6.6
31.2,1.2,0.7,3.6
31.294,6.4,-4.7,-1.7
31.297,4.3,2.3,3.5
31.436,6.2,-5.5,5.4
31.44,4.8,-4.9,7.8
31.535,4.5,1.9,10.0
31.538,5.0,-1.2,7.5
31.561,3.1,2.6,8.2
31.564,1.9,4.5,8.6
31.653,-2.5,4.2,6.8
31.656,-19.0,10.5,39.1
31.721,-9.7,-7.1,-5.1
31.724,4.6,3.3,24.9
31.791,3.1,3.0,12.0
31.795,2.7,3.2,10.4
31.893,0.6,-1.5,7.0
31.904,-2.1,3.4,11.1
31.908,1.3,-1.2,8.8
31.994,2.9,3.3,10.3
31.999,3.7,3.7,10.1
32.094,3.0,4.7,10.7
32.097,3.1,2.4,9.7
32.1,2.2,1.2,8.8
32.194,1.4,2.5,9.3
32.211,1.5,1.8,9.5
32.293,2.4,0.7,9.0
32.304,1.2,-0.1,8.9
32.308,1.7,0.2,9.2
32.394,1.7,1.3,8.3
32.397,2.0,-0.1,9.2
32.492,1.8,4.1,10.4
32.496,2.2,3.3,10.3
32.499,0.0,3.6,9.6
32.621,0.4,2.3,8.8
32.624,-0.9,3.0,7.6
32.719,-3.1,-1.0,7.1
32.722,-0.0,1.9,10.1
32.729,-3.3,-6.7,2.8
32.818,-1.0,3.1,-0.4
32.825,0.4,4.1,14.4
32.828,-0.9,-0.8,14.3
32.921,3.7,6.6,12.4
32.925,1.4,1.9,11.3
33.018,0.6,4.7,12.7
33.021,-0.5,3.4,11.9
33.032,-1.1,3.6,10.9
33.12,-1.5,3.9,10.9
33.123,-1.7,3.3,10.2
33.203,-1.2,3.8,10.4
33.207,-0.5,3.2,10.3
33.216,-0.4,3.5,9.2
33.318,-0.4,3.1,9.5
33.42,0.3,3.7,7.8
33.423,0.6,3.5,9.0
33.437,0.8,3.7,8.7
33.518,0.6,3.7,8.8
33.521,0.4,3.2,8.7
33.53,0.3,3.9,8.4
33.619,0.3,3.6,8.2
33.626,0.4,4.5,9.0
33.693,-0.5,4.0,8.9
33.696,-1.0,4.6,9.1
33.699,-0.7,5.0,9.0
33.817,-0.2,4.8,8.6
33.829,0.7,4.3,8.4
33.921,0.7,4.0,8.4
33.924,0.4,4.0,8.6
33.931,0.1,4.2,8.6
34.019,-0.3,4.3,8.7
34.022,-0.6,5.0,8.7
34.118,1.4,4.4,8.8
34.121,-0.9,4.8,8.9
34.124,-0.6,4.2,9.0
34.231,-0.1,4.9,9.0
34.235,-0.3,4.6,9.0
34.317,0.2,4.5,8.9
34.32,-0.0,4.4,8.9
34.323,0.0,4.3,8.4
34.421,-0.1,4.4,8.9
34.424,-0.8,4.0,8.9
34.518,-0.1,4.1,8.8
34.523,0.6,3.1,8.6
34.527,0.0,4.4,8.9
34.619,-0.3,4.8,8.8
34.622,-0.3,4.4,8.9
34.717,-0.3,4.1,8.9
34.726,-0.4,4.4,8.9
34.731,0.1,4.3,9.0
34.823,-0.4,3.9,8.6
34.827,0.2,4.2,8.8
34.917,-0.2,4.2,9.0
34.921,1.6,3.8,9.1
34.932,-1.1,4.3,9.3
35.02,-2.0,4.0,8.9
35.023,-0.8,3.4,8.5
35.129,-1.2,4.1,8.5
35.133,-0.5,3.7,8.8
35.192,-1.6,4.2,8.7
35.195,-0.4,5.0,9.1
35.199,-1.8,3.5,8.7
35.312,-2.4,3.5,8.4
35.316,-1.3,3.2,9.1
35.418,-2.3,4.2,9.4
35.421,-2.3,4.2,8.9
35.52,-2.9,4.6,9.4
35.523,-2.0,2.7,8.7
35.53,-1.0,4.2,9.0
35.596,-3.6,2.5,8.3
35.602,0.8,3.3,9.3
35.606,-2.6,8.4,11.1
35.728,1.4,0.9,8.4
35.744,1.6,1.1,9.2
35.826,-0.6,2.6,9.2
35.829,0.5,2.7,9.2
35.832,0.2,2.3,9.3
35.917,-0.1,2.3,9.3
35.921,0.5,2.4,9.6
36.028,-0.2,2.4,9.2
36.031,1.5,2.5,10.3
36.036,-0.2,2.8,9.8
