vertical_Accel_x,vertical_Accel_y,vertical_Accel_z,accel_time_list
3.327,-7.861,8.606,0.0
1.465,-5.612,8.161,0.002
0.553,-6.422,7.612,0.004
-0.476,-4.78,7.498,0.103
1.982,-6.065,8.027,0.107
0.588,-5.71,7.651,0.108
1.0,-5.8,7.9,0.11
1.3,-6.2,7.5,0.112
1.286,-5.929,7.943,0.201
0.765,-5.812,7.561,0.203
1.169,-5.976,7.878,0.205
1.276,-5.92,7.802,0.206
1.061,-5.949,7.745,0.301
1.249,-6.059,7.796,0.306
0.855,-5.904,7.62,0.308
1.159,-5.967,7.737,0.31
0.826,-6.964,6.231,0.403
1.145,-6.996,6.424,0.404
1.317,-7.049,6.184,0.406
0.952,-6.729,6.062,0.408
1.236,-6.772,6.982,0.506
0.335,-6.289,6.273,0.508
-0.407,-5.967,6.463,0.51
-1.15,-5.646,6.652,0.513
-0.643,-6.687,5.285,0.603
-1.321,-6.693,4.593,0.604
-2.01,-6.693,4.849,0.606
-2.422,-6.702,5.888,0.608
-1.2,-8.279,4.926,0.705
-1.4,-8.458,5.013,0.707
-1.9,-8.64,5.325,0.709
-2.2,-8.864,5.322,0.718
0.596,-10.373,3.196,0.837
0.312,-10.482,3.112,0.839
0.447,-10.629,2.847,0.841
0.384,-10.39,2.984,0.842
-0.052,-10.536,0.7,0.903
0.648,-10.436,0.7,0.905
1.196,-10.172,0.7,0.906
0.824,-9.968,0.5,0.908
1.982,-8.883,-0.494,1.003
3.265,-8.993,-1.331,1.009
3.618,-9.417,-2.406,1.011
2.761,-9.937,-3.246,1.013
1.811,-9.642,-4.718,1.102
1.778,-9.856,-4.044,1.108
1.411,-10.202,-3.638,1.121
0.956,-10.151,-3.169,1.122
3.354,-9.925,-2.963,1.203
3.243,-10.34,-2.411,1.204
2.701,-10.278,-2.075,1.209
3.016,-9.877,-1.729,1.211
3.162,-8.868,-1.4,1.303
2.804,-7.913,-1.6,1.304
2.498,-7.043,-1.5,1.306
2.489,-6.46,-0.9,1.308
1.249,-6.156,1.131,1.408
0.333,-6.233,0.667,1.409
-0.86,-6.5,0.48,1.411
-2.238,-6.589,1.058,1.413
-0.669,-6.347,2.037,1.503
-1.059,-6.196,1.849,1.513
-2.327,-6.033,2.108,1.52
-4.449,-5.445,1.661,1.522
-17.257,-21.738,-8.509,1.603
0.387,-9.175,-3.219,1.604
-5.819,-12.479,-4.47,1.606
-10.425,-18.183,-5.721,1.607
0.696,-11.849,-9.071,1.678
1.653,-9.269,-8.068,1.679
0.33,-7.741,-6.709,1.681
-1.252,-7.119,-4.739,1.682
-1.504,-7.063,-6.484,1.825
-1.329,-8.743,-8.486,1.827
-1.794,-9.755,-10.424,1.902
-1.139,-9.351,-11.845,1.904
1.773,-4.961,-8.894,1.915
2.602,-2.418,-7.408,1.917
2.673,-1.761,-7.294,1.924
1.604,0.646,-7.688,2.001
1.271,0.108,-7.787,2.004
1.202,-0.127,-7.794,2.012
1.3,-0.004,-8.228,2.014
1.192,-0.345,-8.908,2.101
1.282,-0.876,-10.418,2.104
1.304,-1.527,-11.896,2.11
1.567,-1.867,-12.933,2.112
0.904,-1.727,-12.896,2.201
0.19,-2.731,-17.01,2.208
0.333,-2.633,-15.367,2.21
0.282,-2.076,-12.718,2.212
2.002,-5.253,-10.222,2.308
0.902,-6.753,-9.922,2.32
1.033,-8.916,-10.693,2.321
1.046,-9.958,-10.386,2.323
-2.1,-11.48,-6.36,2.404
-0.3,-9.3,-6.1,2.408
0.1,-8.32,-5.74,2.409
-0.276,-7.415,-4.766,2.411
-3.279,-6.256,-4.387,2.501
-3.125,-5.397,-3.806,2.504
-3.388,-5.24,-4.02,2.505
-3.609,-5.195,-4.51,2.507
-3.545,-4.864,-4.672,2.606
-2.779,-5.556,-4.487,2.609
-2.908,-6.007,-4.286,2.611
-3.605,-6.842,-4.417,2.612
-4.346,-7.752,-4.595,2.704
-4.498,-8.223,-4.753,2.708
-6.092,-9.393,-5.614,2.709
-7.73,-11.239,-6.822,2.711
-5.965,-11.519,-7.561,2.81
0.344,-8.524,-5.551,2.814
0.102,-6.323,-4.853,2.815
-2.385,-5.075,-4.15,2.817
-2.778,-5.698,-5.81,2.875
-6.145,-8.504,-9.28,2.879
-6.567,-9.106,-11.769,2.88
-5.127,-8.439,-11.906,2.882
-0.488,-7.564,-11.941,2.999
0.761,-5.158,-8.794,3.002
1.005,-4.363,-7.877,3.008
0.662,-2.17,-8.214,3.076
0.66,-2.243,-8.619,3.078
-0.317,-2.655,-9.452,3.081
-0.566,-2.476,-10.198,3.087
-0.28,-2.385,-10.339,3.088
-0.312,-0.718,-10.112,3.174
0.127,-0.092,-10.273,3.177
0.602,-0.314,-10.398,3.179
0.792,-0.645,-10.608,3.275
0.929,-1.206,-11.171,3.277
0.994,-2.659,-12.106,3.286
0.906,-2.641,-11.594,3.375
0.547,-1.629,-10.753,3.377
0.439,-0.775,-9.961,3.378
0.373,0.892,-10.127,3.382
2.187,-0.693,-10.033,3.475
1.362,-1.798,-10.011,3.477
0.322,-3.578,-10.611,3.478
-1.053,-6.373,-11.133,3.482
-2.615,-12.714,-5.008,3.575
-2.084,-13.898,-5.285,3.577
-1.625,-14.503,-5.573,3.578
-0.84,-13.918,-6.281,3.588
-5.374,-12.042,-4.026,3.675
-4.821,-10.726,-4.179,3.677
-4.472,-9.409,-4.468,3.683
-4.644,-6.722,-5.544,3.686
-3.682,-5.021,-6.157,3.802
-3.046,-4.952,-5.395,3.804
-2.737,-5.057,-4.685,3.806
-2.536,-5.169,-3.662,3.817
-2.24,-6.056,-1.71,3.905
-2.064,-6.179,-0.791,3.906
-1.792,-5.929,-0.298,3.909
-1.612,-5.607,-0.703,3.912
-1.739,-6.148,-1.535,3.914
-2.245,-7.301,-1.886,4.0
-2.708,-8.671,-1.502,4.002
-5.251,-10.963,-1.813,4.005
-6.269,-11.124,-2.467,4.01
-4.643,-12.419,-2.337,4.1
-5.513,-12.596,-2.947,4.102
-5.685,-12.072,-4.295,4.105
-4.852,-11.249,-4.868,4.107
-2.91,-7.792,-10.041,4.2
-3.731,-7.776,-10.122,4.202
-4.184,-7.653,-10.935,4.213
-4.414,-7.429,-11.757,4.215
-1.4,-4.998,-13.143,4.3
-0.6,-4.745,-12.358,4.302
1.2,-4.125,-10.036,4.305
1.556,-2.388,-9.731,4.307
1.993,-2.103,-9.507,4.399
2.199,-2.029,-9.301,4.401
1.774,-1.211,-8.926,4.404
2.63,-0.485,-7.832,4.411
2.266,0.183,-7.206,4.501
2.309,0.304,-7.023,4.503
2.781,-0.16,-7.372,4.511
2.713,-0.294,-6.885,4.512
2.477,-0.462,-7.211,4.606
2.204,-0.898,-8.662,4.617
1.491,-3.304,-13.077,4.621
1.326,-5.187,-15.67,4.622
0.806,-9.558,-16.066,4.7
0.783,-10.279,-15.123,4.705
0.638,-9.447,-11.798,4.709
0.453,-11.816,-13.253,4.71
-6.828,-14.469,-8.866,4.801
-5.699,-15.194,-8.387,4.803
-5.488,-14.03,-9.649,4.806
-4.6,-11.7,-9.3,4.808
-8.668,-8.884,-5.531,4.9
-8.948,-7.629,-3.942,4.902
-6.889,-5.128,-1.044,4.905
-5.516,-4.114,-0.773,4.907
-4.862,-4.154,-1.091,5.0
-3.93,-3.839,-2.422,5.009
-3.733,-3.104,-1.892,5.012
-3.053,-3.759,-1.482,5.014
-2.841,-4.565,-1.385,5.1
-2.702,-4.918,-1.85,5.102
-2.344,-6.192,-2.111,5.109
-1.402,-7.318,-1.45,5.111
-0.034,-8.523,-0.306,5.2
-0.551,-9.334,-0.658,5.202
-1.127,-11.424,-2.653,5.211
0.315,-12.809,-4.66,5.3
0.689,-13.168,-6.255,5.302
0.679,-12.725,-7.517,5.303
0.087,-12.479,-7.347,5.307
0.688,-10.948,-7.413,5.4
0.18,-10.235,-6.163,5.402
-0.726,-10.009,-5.82,5.403
-1.798,-9.175,-6.314,5.407
-0.7,-6.98,-8.36,5.5
0.0,-6.04,-7.78,5.502
0.5,-6.76,-6.32,5.504
1.643,-6.12,-3.197,5.511
0.53,-3.959,-2.291,5.601
-2.132,-2.716,-2.024,5.603
-5.934,-3.092,-3.538,5.611
-3.397,-3.137,-2.078,5.615
-0.074,-7.809,-3.32,5.704
-3.774,-15.009,-6.82,5.706
-14.373,-12.422,-5.012,5.707
-5.448,-10.519,2.861,5.721
-1.796,-4.677,-0.05,5.821
-2.026,0.043,-3.241,5.822
0.679,-1.628,1.322,5.824
0.456,-2.262,-6.468,5.827
6.1,-2.84,-7.88,5.9
7.1,-6.2,3.6,5.902
5.4,-11.02,8.86,5.903
6.823,-9.872,7.359,5.91
1.611,-18.109,-0.503,5.976
-8.484,-10.324,-3.375,5.978
-10.842,-4.322,-5.307,5.979
-13.853,-7.313,9.496,5.983
-0.018,-30.482,-10.276,6.075
-8.847,-42.753,19.829,6.08
34.514,-23.614,-1.663,6.082
-7.504,-8.813,-14.136,6.2
7.383,-7.651,-6.545,6.206
6.489,-10.832,-9.64,6.208
5.326,-23.923,-19.983,6.21
-7.5,2.218,2.671,6.301
6.267,-6.169,6.425,6.303
3.433,3.569,-6.625,6.309
-2.567,-3.161,-22.643,6.31
5.767,-7.604,9.684,6.314
12.62,-18.219,-2.558,6.4
9.039,-13.832,-8.309,6.402
4.966,-8.698,-6.531,6.407
1.881,-5.65,0.513,6.411
-4.4,-4.7,0.4,6.5
-7.3,-6.516,0.912,6.501
-14.8,-6.824,4.468,6.524
-1.4,-5.324,-1.032,6.527
6.8,-10.16,1.62,6.6
13.0,-15.552,2.964,6.602
10.2,-15.548,2.236,6.603
4.5,-7.796,-8.628,6.614
4.376,-2.296,-12.478,6.7
0.513,-6.093,-9.767,6.702
-1.393,-8.247,-4.533,6.708
-1.156,-8.744,-3.822,6.711
0.6,-4.457,-7.602,6.8
-0.1,-3.27,-7.806,6.801
-1.4,-4.583,-7.209,6.803
-0.278,-6.412,-7.302,6.808
-0.347,-7.166,-6.479,6.899
0.248,-7.438,-6.229,6.911
1.204,-8.019,-6.134,6.919
-1.0,-9.0,-5.6,7.0
-0.3,-9.275,-5.536,7.001
0.1,-9.138,-5.568,7.003
0.0,-9.17,-5.706,7.008
-0.8,-9.826,-5.408,7.1
-0.8,-9.804,-4.687,7.101
0.1,-9.072,-4.349,7.103
0.4,-7.853,-4.415,7.105
-0.6,-6.285,-4.853,7.18
-0.3,-6.921,-4.777,7.184
-0.2,-8.013,-5.104,7.185
-0.8,-7.887,-5.496,7.187
-0.7,-8.725,-5.664,7.298
-0.7,-9.074,-5.292,7.307
-0.6,-8.819,-5.134,7.309
0.1,-8.84,-4.911,7.31
0.2,-9.242,-4.455,7.381
0.0,-8.966,-4.519,7.386
-0.1,-8.743,-4.498,7.388
-0.1,-8.394,-4.87,7.389
-0.1,-8.289,-5.04,7.476
-0.2,-8.013,-5.104,7.484
-0.2,-8.036,-5.825,7.486
-0.6,-8.449,-5.728,7.487
-0.7,-8.215,-5.347,7.582
-0.4,-8.458,-5.145,7.584
-0.4,-8.723,-4.721,7.586
-0.4,-8.913,-4.604,7.589
-0.2,-8.775,-4.636,7.69
-0.3,-8.374,-5.092,7.692
-0.4,-8.426,-5.008,7.693
-0.2,-8.479,-4.923,7.695
-0.1,-8.702,-4.943,7.801
-0.1,-8.702,-4.943,7.803
-0.2,-8.479,-4.923,7.804
-0.3,-8.617,-4.891,7.812
-0.4,-8.585,-4.753,7.894
-0.4,-8.638,-4.668,7.896
-0.3,-8.479,-4.923,7.897
-0.2,-8.479,-4.923,7.899
-0.2,-8.479,-4.923,7.973
-0.3,-8.479,-4.923,7.975
-0.2,-8.532,-4.838,7.976
-0.2,-8.617,-4.891,7.978
-0.2,-8.426,-5.008,8.095
-0.4,-8.702,-4.943,8.097
-0.4,-8.84,-4.911,8.099
-0.4,-8.755,-4.858,8.177
-0.3,-8.564,-4.975,8.187
-0.3,-8.67,-4.806,8.192
-0.2,-8.447,-4.785,8.194
-0.2,-8.394,-4.87,8.304
-0.2,-8.775,-4.636,8.31
-0.2,-8.723,-4.721,8.312
-0.2,-8.585,-4.753,8.314
-0.1,-8.723,-4.721,8.401
-0.3,-8.86,-4.689,8.404
-0.3,-8.945,-4.742,8.406
-0.2,-8.723,-4.721,8.408
-0.3,-8.638,-4.668,8.417
-0.3,-8.532,-4.838,8.499
-0.3,-8.617,-4.891,8.507
-0.4,-8.585,-4.753,8.509
-0.4,-8.468,-4.562,8.511
0.0,-8.574,-4.392,8.598
0.0,-8.775,-4.636,8.6
-0.3,-8.977,-4.879,8.602
-0.4,-8.84,-4.911,8.61
-0.2,-8.743,-4.498,8.703
-0.1,-8.828,-4.551,8.705
-0.2,-8.86,-4.689,8.708
-0.5,-8.872,-5.049,8.709
-0.4,-9.074,-5.292,8.801
-0.2,-9.54,-5.111,8.803
-0.5,-9.381,-5.366,8.812
-0.9,-8.575,-5.336,8.814
-0.1,-8.5,-4.7,8.901
0.4,-8.16,-4.489,8.902
0.5,-7.874,-4.192,8.904
0.6,-7.862,-3.832,8.906
0.7,-8.402,-3.343,9.003
0.5,-8.794,-3.47,9.005
0.2,-9.325,-3.564,9.007
0.1,-9.389,-3.84,9.008
-0.2,-8.394,-4.87,9.106
0.0,-8.045,-5.242,9.108
0.0,-8.564,-4.975,9.109
0.1,-8.84,-4.911,9.111
0.0,-8.734,-5.081,9.201
-0.1,-8.734,-5.081,9.21
0.0,-8.787,-4.996,9.212
0.1,-9.062,-4.932,9.214
-0.4,-8.851,-5.272,9.304
-0.2,-9.074,-5.292,9.306
-0.3,-10.017,-5.291,9.307
-0.7,-10.928,-5.151,9.309
-0.7,-9.955,-5.958,9.4
-0.9,-10.625,-6.964,9.402
-1.6,-10.889,-6.54,9.403
-1.2,-9.596,-6.913,9.405
-1.22,-9.46,-7.1,9.501
-0.493,-9.047,-7.433,9.502
0.3,-7.6,-7.6,9.504
0.829,-6.969,-7.644,9.505
-0.076,-7.955,-6.099,9.613
0.476,-8.545,-5.401,9.614
0.9,-8.16,-4.38,9.616
0.681,-8.004,-3.545,9.618
-1.727,-7.967,-1.192,9.701
-0.751,-8.545,-1.261,9.702
0.696,-9.18,-1.145,9.704
1.157,-9.386,-0.871,9.705
0.636,-9.089,0.896,9.8
2.418,-9.955,0.818,9.802
3.709,-11.507,0.869,9.804
4.818,-11.635,1.078,9.81
1.694,-9.351,4.096,9.902
1.783,-7.553,5.489,9.904
2.343,-6.509,6.662,9.905
3.225,-6.179,6.783,9.907
3.796,-8.049,2.041,9.976
4.027,-6.982,2.235,9.977
4.469,-6.067,2.606,9.979
5.084,-5.396,2.563,9.98
4.824,-5.042,-0.861,10.078
5.166,-4.457,-0.381,10.08
5.317,-4.694,-1.034,10.199
6.574,-4.46,-1.849,10.201
6.83,-3.364,-3.46,10.204
6.44,-3.272,-4.881,10.205
5.098,-4.986,-5.769,10.324
5.065,-5.253,-5.335,10.326
5.712,-4.782,-6.588,10.329
5.982,-5.076,-7.118,10.331
6.025,-5.578,-7.308,10.337
3.368,-5.344,-8.881,10.444
3.564,-5.412,-8.437,10.448
3.363,-4.779,-8.026,10.449
2.967,-4.111,-8.47,10.504
3.459,-4.28,-8.893,10.505
4.21,-5.297,-8.299,10.509
4.482,-5.073,-8.024,10.51
4.477,-4.408,-7.469,10.512
4.043,-3.986,-7.529,10.6
3.755,-4.848,-7.849,10.604
3.678,-5.341,-7.08,10.605
3.737,-5.421,-7.074,10.607
3.756,-5.281,-7.06,10.699
3.269,-5.977,-6.592,10.702
3.557,-4.714,-7.471,10.704
3.181,-4.34,-7.113,10.713
4.22,-5.002,-6.976,10.816
2.915,-5.762,-6.854,10.854
5.011,-5.63,-5.91,10.856
3.093,-5.802,-7.434,10.859
3.574,-6.987,-5.704,10.927
3.513,-6.857,-5.948,10.932
4.017,-6.709,-5.83,10.934
3.239,-6.67,-5.943,10.935
3.696,-7.348,-5.517,10.998
2.335,-6.917,-6.261,11.002
2.491,-6.796,-6.235,11.003
2.591,-7.096,-5.435,11.005
2.504,-7.052,-5.883,11.094
3.896,-7.748,-5.617,11.098
3.396,-7.848,-5.217,11.109
3.139,-6.97,-6.243,11.11
3.777,-6.114,-6.034,11.173
3.599,-7.592,-5.823,11.176
5.435,-6.683,-4.687,11.178
5.068,-5.641,-6.043,11.276
3.703,-6.224,-5.73,11.278
4.116,-7.029,-5.428,11.281
4.655,-6.536,-5.645,11.283
4.719,-6.954,-4.959,11.377
4.287,-6.995,-5.802,11.379
4.341,-7.131,-5.147,11.394
4.1,-7.3,-5.3,11.396
