gyro_time_list,gyro_x_list,gyro_y_list,gyro_z_list
0.0,-0.1,0.1,0.1
0.002,-0.6,0.1,0.1
0.004,-0.2,0.1,0.1
0.006,-0.1,-0.0,-0.0
0.11,-0.1,-0.1,-0.0
0.112,-0.2,-0.1,-0.0
0.114,-0.2,-0.1,-0.0
0.115,-0.1,-0.0,-0.0
0.204,-0.1,-0.0,-0.1
0.205,-0.1,-0.0,-0.1
0.207,-0.0,0.0,-0.1
0.209,-0.1,0.0,-0.1
0.324,-0.0,0.0,-0.1
0.331,-0.1,0.0,-0.0
0.332,-0.1,0.0,-0.0
0.334,-0.0,0.0,-0.0
0.407,-0.1,0.0,-0.0
0.409,-0.1,0.0,-0.0
0.411,-0.1,0.0,-0.0
0.412,-0.1,0.1,-0.0
0.502,-0.2,0.1,-0.0
0.503,-0.2,0.1,0.0
0.518,-0.3,0.2,0.0
0.52,-0.5,0.2,0.1
0.607,-1.6,0.5,0.2
0.609,-2.7,0.6,0.3
0.61,-3.8,0.8,0.5
0.612,-4.7,1.0,0.6
0.725,-5.7,1.4,1.1
0.727,-5.6,1.5,1.4
0.728,-5.1,1.5,1.8
0.741,-4.6,1.3,2.1
0.809,-3.6,1.6,2.6
0.81,-3.5,1.6,2.8
0.812,-3.3,1.6,3.1
0.814,-3.2,1.5,3.3
0.918,-2.8,1.7,3.8
0.92,-2.8,1.7,4.0
0.922,-2.8,1.7,4.1
0.923,-2.4,1.6,4.1
1.004,-1.3,1.1,3.7
1.006,-0.9,1.1,3.3
1.007,-0.6,1.1,2.7
1.009,-0.4,1.1,2.2
1.117,-0.0,1.0,1.4
1.119,0.0,0.9,1.1
1.137,-0.0,0.7,0.9
1.139,-0.1,0.5,0.8
1.19,-0.3,0.2,0.5
1.194,-0.3,0.2,0.3
1.196,-0.2,0.1,0.2
1.198,-0.1,0.0,-0.0
1.299,0.0,-0.2,-0.4
1.3,0.1,-0.3,-0.5
1.302,0.1,-0.4,-0.7
1.405,0.1,-0.5,-0.8
1.409,-0.0,-0.6,-1.1
1.41,-0.1,-0.7,-1.3
1.412,-0.1,-0.7,-1.4
1.413,-0.2,-0.8,-1.4
1.526,-0.3,-0.7,-1.5
1.537,-0.3,-0.7,-1.5
1.539,-0.3,-0.7,-1.4
1.54,-0.3,-0.7,-1.3
1.603,-0.2,-0.6,-1.1
1.605,0.1,-0.3,-1.0
1.611,0.4,-0.3,-0.9
1.613,0.7,-0.4,-0.7
1.712,0.5,-0.7,-0.4
1.714,-0.0,-0.7,-0.4
1.716,-0.7,-0.6,-0.3
1.717,-1.2,-0.5,-0.2
1.808,-1.3,-0.5,0.1
1.81,-1.1,-0.5,0.3
1.812,-1.0,-0.5,0.4
1.813,-0.9,-0.3,0.6
1.909,-0.6,-0.1,0.8
1.91,-0.4,0.0,1.0
1.912,-0.3,0.1,1.1
1.915,-0.2,0.1,1.2
2.006,-0.3,0.2,1.4
2.009,-0.4,0.2,1.5
2.108,-0.6,0.2,1.4
2.11,-0.6,0.3,1.4
2.113,-0.5,0.5,1.4
2.115,-0.3,0.6,1.4
2.116,0.0,0.7,1.4
2.213,0.3,0.7,1.5
2.217,0.7,0.7,1.6
2.22,0.6,0.4,1.5
2.222,0.3,0.2,1.3
2.308,-0.0,0.3,0.9
2.321,-0.0,0.2,0.1
2.323,0.1,0.2,-0.4
2.329,0.4,0.2,-0.7
2.407,1.1,0.3,-1.0
2.411,2.2,0.0,-1.2
2.416,2.4,-0.2,-1.3
2.418,2.2,-0.5,-1.3
2.509,1.8,-0.7,-1.4
2.513,0.7,-0.9,-1.8
2.514,0.2,-1.0,-1.9
2.516,-0.1,-1.0,-2.0
2.595,-0.2,-1.0,-2.0
2.6,-0.1,-1.1,-1.9
2.602,0.1,-1.1,-1.8
2.603,0.3,-1.0,-1.6
2.7,0.4,-1.0,-1.4
2.703,0.0,-0.9,-0.9
2.705,-0.5,-0.8,-0.5
2.809,-1.1,-0.8,-0.1
2.814,-1.8,-0.9,0.2
2.817,-2.4,-0.8,0.8
2.819,-1.9,-0.6,0.9
2.821,-1.2,-0.4,1.0
2.909,-0.7,-0.2,1.0
2.912,0.1,-0.2,1.4
2.913,0.2,-0.1,1.7
2.915,0.0,-0.0,2.0
3.018,-0.3,0.1,2.0
3.022,-0.9,0.3,2.0
3.024,-0.8,0.4,2.0
3.037,-0.5,0.5,2.0
3.102,-0.3,0.5,2.0
3.108,-0.3,0.6,2.0
3.11,-0.3,0.6,1.9
3.111,-0.3,0.5,1.8
3.206,-0.4,0.5,1.7
3.209,-0.4,0.5,1.4
3.211,-0.4,0.5,1.2
3.213,-0.4,0.5,1.0
3.277,-0.5,0.4,0.7
3.298,-0.5,0.4,0.2
3.299,-0.3,0.4,0.0
3.301,-0.2,0.3,-0.2
3.416,0.0,0.3,-0.4
3.422,0.6,0.4,-0.7
3.515,1.0,0.5,-0.8
3.517,1.4,0.5,-0.9
3.518,1.6,0.4,-1.0
3.525,1.6,-0.1,-1.3
3.527,1.5,-0.2,-1.5
3.528,1.4,-0.3,-1.8
3.607,1.4,-0.3,-2.0
3.611,1.6,-0.5,-2.3
3.612,1.8,-0.5,-2.2
3.617,2.0,-0.6,-2.0
3.703,2.1,-0.7,-1.8
3.706,1.5,-1.3,-1.4
3.708,0.9,-1.3,-1.3
3.815,0.1,-1.3,-1.3
3.817,-0.5,-1.2,-1.4
3.829,-1.0,-0.8,-1.6
3.831,-0.9,-0.7,-1.6
3.901,-0.7,-0.6,-1.6
3.903,-0.5,-0.6,-1.5
3.906,0.0,-0.4,-1.3
3.916,0.2,-0.2,-1.1
3.981,0.2,-0.1,-1.0
3.984,0.2,0.0,-0.8
3.987,0.2,0.4,-0.1
3.988,0.3,0.5,0.3
4.098,0.4,0.7,0.8
4.104,0.5,0.8,1.3
4.107,0.3,1.0,2.2
4.213,0.1,1.1,2.6
4.214,-0.3,1.2,3.0
4.216,-0.9,1.2,3.2
4.236,-1.3,1.3,3.6
4.238,-1.1,0.9,3.5
4.301,-0.8,0.5,3.3
4.306,-0.6,0.3,3.0
4.312,-0.6,0.4,2.1
4.314,-0.8,0.4,1.5
4.401,-1.2,0.3,1.0
4.403,-1.7,0.1,0.7
4.407,-2.2,-0.1,0.2
4.409,-2.2,-0.2,-0.0
4.485,-2.1,-0.2,-0.1
4.486,-1.8,-0.2,-0.2
4.496,-1.2,-0.2,-0.4
4.497,-1.1,-0.2,-0.4
4.596,-1.0,-0.2,-0.5
4.606,-1.0,-0.2,-0.5
4.621,-0.9,-0.2,-0.6
4.708,-0.8,-0.2,-0.6
4.709,-0.7,-0.1,-0.6
4.711,-0.5,-0.0,-0.6
4.714,-0.1,0.3,-0.5
4.719,0.1,0.4,-0.3
4.801,0.4,0.4,-0.1
4.803,0.8,0.4,0.1
4.812,1.6,0.5,0.3
4.814,1.9,0.3,0.2
4.917,1.9,-0.1,-0.1
4.919,1.8,-0.3,-0.7
4.922,2.1,0.0,-2.0
4.924,2.2,-0.1,-2.5
5.005,2.3,-0.2,-2.8
5.007,2.3,-0.4,-2.9
5.01,1.9,-0.8,-2.7
5.012,1.5,-0.9,-2.6
5.107,1.2,-1.0,-2.5
5.109,0.9,-0.9,-2.4
5.113,0.4,-0.8,-2.2
5.115,0.3,-0.8,-2.1
5.184,-0.0,-0.9,-2.0
5.186,-0.3,-0.8,-1.8
5.189,-0.2,-0.5,-1.3
5.19,0.0,-0.4,-1.0
5.338,0.3,-0.2,-0.7
5.34,0.4,-0.1,-0.3
5.41,0.0,0.1,0.7
5.42,-0.1,0.2,1.4
5.422,-0.3,0.1,2.0
5.429,-0.5,0.1,2.7
5.432,-0.8,0.2,3.8
5.434,-0.9,0.2,4.0
5.502,-0.5,0.1,3.8
5.503,0.4,0.3,3.6
5.51,1.7,0.9,2.6
5.599,1.8,1.2,2.2
5.6,1.2,1.2,1.5
5.606,0.9,1.1,1.1
5.61,1.5,1.2,0.8
5.716,1.4,1.0,0.5
5.718,1.3,1.0,0.5
5.72,1.1,0.9,0.5
5.731,-0.4,0.1,0.3
5.804,-0.2,-0.3,0.0
5.806,1.0,-0.3,-0.2
5.807,1.7,-0.2,-0.3
5.814,4.1,-0.3,-0.3
5.876,3.2,-0.5,-0.3
5.881,0.6,-1.4,-0.7
5.883,-0.4,-2.0,-1.2
5.886,2.5,1.0,-1.8
6.002,3.0,-0.1,-3.8
6.004,-4.4,-10.1,-4.1
6.005,-3.0,-5.5,-4.4
6.128,-4.8,-9.7,-7.5
6.13,-8.5,-6.1,-7.6
6.133,-3.3,-2.1,-9.3
6.135,8.0,0.6,-4.2
6.202,10.2,-2.0,-2.1
6.21,7.6,-2.9,-0.8
6.212,4.4,-1.7,0.3
6.213,0.6,-3.3,-0.4
6.218,-2.2,-2.9,-0.4
6.275,-2.8,-3.6,0.1
6.277,-4.3,-3.5,0.3
6.279,-5.6,-2.9,0.3
6.398,-3.8,-1.5,0.8
6.4,-1.1,-1.4,0.9
6.401,1.5,-1.3,1.2
6.403,4.0,-1.0,1.4
6.522,7.2,0.9,1.6
6.525,7.4,2.0,1.3
6.526,7.6,2.9,1.1
6.549,7.4,3.2,0.9
6.617,4.8,2.2,0.5
6.618,2.5,1.8,0.5
6.62,1.7,2.1,0.4
6.625,1.8,2.0,0.2
6.697,2.0,1.0,0.0
6.699,1.4,1.1,0.1
6.7,-0.6,0.7,-0.1
6.706,-1.9,-0.0,-0.2
6.808,-1.7,-0.1,0.3
6.814,-2.0,-0.2,0.1
6.815,-1.5,-0.3,-0.1
6.817,-0.7,-0.2,-0.2
6.919,0.1,-0.0,-0.3
6.921,0.1,-0.0,-0.3
6.933,0.5,-0.1,-0.4
6.935,1.3,-0.0,-0.4
7.008,1.8,-0.1,-0.4
7.01,1.5,-0.2,-0.3
7.011,1.0,-0.2,-0.3
7.016,0.3,-0.1,-0.3
7.098,-0.4,-0.0,-0.2
7.1,-0.3,0.0,-0.1
7.101,-0.2,0.0,-0.1
7.103,-0.2,0.0,0.0
7.2,-1.0,0.1,0.1
7.202,-0.8,0.0,0.0
7.204,-0.5,-0.0,-0.1
7.212,-0.0,-0.0,-0.1
7.289,0.5,-0.0,-0.2
7.299,0.9,-0.0,-0.2
7.3,1.1,-0.0,-0.2
7.302,1.1,-0.1,-0.1
7.401,0.0,-0.0,-0.1
7.402,-0.3,-0.0,-0.1
7.404,-0.3,-0.0,0.0
7.405,-0.1,0.0,0.1
7.513,-0.6,0.0,0.1
7.514,-0.6,0.1,0.0
7.516,-0.5,0.1,-0.0
7.521,-0.3,0.0,-0.0
7.609,0.1,-0.0,-0.1
7.615,0.3,-0.0,-0.1
7.617,0.4,-0.0,-0.1
7.619,0.5,-0.0,-0.0
7.704,0.4,-0.0,0.0
7.705,0.2,-0.0,0.0
7.707,-0.1,-0.0,0.1
7.708,-0.2,0.0,0.1
7.807,-0.3,0.0,0.0
7.808,-0.3,0.0,0.0
7.81,-0.2,0.0,-0.0
7.811,-0.1,0.0,-0.0
7.904,0.2,-0.0,-0.0
7.906,0.2,-0.0,-0.0
7.908,0.3,-0.0,-0.0
7.909,0.3,-0.0,-0.0
7.994,0.1,-0.0,0.0
7.996,-0.0,0.0,0.0
7.998,-0.1,0.0,0.0
7.999,-0.2,0.0,0.0
8.102,-0.1,0.0,0.0
8.104,-0.1,0.0,-0.0
8.105,0.0,-0.0,-0.0
8.213,0.1,-0.0,-0.0
8.234,0.1,-0.0,-0.0
8.235,0.1,-0.0,-0.0
8.24,0.1,0.0,-0.0
8.242,0.1,0.0,-0.0
8.305,-0.0,0.0,0.0
8.307,-0.1,0.0,0.0
8.308,-0.1,0.0,0.0
8.314,-0.0,0.0,0.0
8.414,0.0,0.0,-0.0
8.421,0.0,-0.0,-0.0
8.422,0.0,-0.0,-0.0
8.433,0.0,-0.0,-0.0
8.512,0.0,0.0,-0.0
8.513,0.0,0.0,0.0
8.515,-0.0,-0.0,0.0
8.516,-0.0,0.0,0.0
8.604,0.0,-0.0,0.0
8.606,0.0,-0.0,0.0
8.607,-0.0,-0.0,0.0
8.609,-0.0,-0.0,-0.0
8.681,0.0,0.0,-0.0
8.683,0.0,0.0,-0.0
8.685,0.0,0.0,-0.0
8.686,-0.0,-0.0,0.0
8.81,-0.0,0.0,0.0
8.821,-0.0,0.0,0.0
8.833,0.0,0.0,-0.0
8.909,0.0,0.0,-0.0
8.913,-0.0,0.0,0.0
8.916,-0.0,0.0,0.0
8.918,-0.0,0.0,0.0
8.925,0.0,0.0,-0.0
9.003,0.0,-0.0,-0.0
9.005,0.0,-0.0,-0.0
9.007,0.0,-0.0,0.0
9.008,0.0,-0.0,0.0
9.102,0.0,0.0,-0.0
9.103,0.0,-0.0,-0.0
9.105,-0.0,-0.0,-0.0
9.106,0.0,0.0,-0.0
9.228,0.0,0.0,0.0
9.239,0.0,0.0,0.0
9.247,0.0,-0.0,0.0
9.249,0.0,0.0,0.0
9.305,0.0,-0.0,0.0
9.31,-0.0,-0.0,0.0
9.311,-0.0,0.0,0.0
9.313,0.0,0.0,-0.0
9.38,0.0,-0.0,-0.0
9.381,-0.0,-0.0,-0.0
9.383,-0.0,-0.0,0.0
9.391,-0.0,-0.0,0.0
9.498,0.1,0.0,-0.0
9.499,0.0,0.0,-0.0
9.618,0.0,0.0,0.0
9.619,-0.0,0.0,0.0
9.634,-0.0,0.0,0.0
9.638,0.0,-0.0,0.0
9.64,0.0,-0.0,-0.0
9.704,0.0,0.0,-0.0
9.711,-0.0,0.0,0.0
9.713,-0.0,0.0,0.0
9.714,-0.0,0.0,-0.0
9.803,0.0,0.0,-0.0
9.809,0.0,0.0,0.0
9.811,0.0,0.0,0.0
9.813,0.0,0.0,0.0
9.911,0.0,0.0,-0.0
9.915,-0.0,0.0,0.0
9.923,-0.0,-0.0,0.0
9.924,-0.0,-0.0,0.0
10.0,-0.0,-0.0,-0.0
10.011,-0.0,0.0,-0.0
10.013,-0.0,0.0,-0.0
10.014,0.0,0.0,-0.0
10.081,0.0,0.0,-0.0
10.086,-0.0,-0.0,0.0
10.088,-0.0,-0.0,0.0
10.09,-0.0,-0.0,0.0
10.212,0.0,0.0,0.0
10.216,0.0,0.0,-0.0
10.218,0.0,0.0,-0.0
10.318,-0.0,0.0,0.0
10.32,-0.0,0.0,0.0
10.324,0.0,-0.0,0.0
10.329,0.0,-0.0,-0.0
10.331,0.0,-0.0,-0.0
10.403,0.0,-0.0,-0.0
10.405,0.0,0.0,0.0
10.407,-0.0,0.0,-0.0
10.409,-0.0,0.0,0.0
10.504,-0.0,0.0,0.0
10.511,0.0,-0.0,0.0
10.512,0.0,0.0,0.0
10.513,0.0,0.0,0.0
10.604,0.0,0.0,0.0
10.607,0.0,-0.0,0.0
10.609,0.0,0.0,0.0
10.61,0.0,-0.0,-0.0
10.716,0.0,0.0,-0.0
10.72,-0.0,0.0,0.0
10.721,-0.0,0.0,0.0
10.733,-0.0,-0.0,-0.0
10.781,0.0,0.0,-0.0
10.785,-0.0,-0.0,-0.0
10.787,-0.0,-0.0,0.0
10.788,-0.1,-0.0,0.0
10.897,-0.0,-0.0,0.0
10.901,0.1,0.0,-0.0
11.004,0.0,0.0,-0.0
11.009,-0.0,0.0,0.0
11.011,-0.0,0.0,0.0
11.014,-0.0,0.0,0.0
11.016,-0.0,-0.0,-0.0
11.017,0.0,-0.0,-0.0
11.109,0.0,0.0,-0.0
11.112,-0.0,-0.0,0.0
11.122,-0.0,0.0,-0.0
11.131,0.0,0.0,-0.0
11.212,0.0,0.0,0.0
11.215,0.0,0.0,0.0
11.216,0.0,0.0,0.0
11.3,0.0,0.0,-0.0
11.305,0.0,0.0,0.0
11.309,0.0,0.0,-0.0
11.31,0.1,0.1,0.0
11.405,0.2,0.0,-0.0
11.406,0.2,-0.0,-0.0
11.41,0.1,-0.0,-0.0
11.411,0.1,-0.0,-0.0
11.489,0.1,0.0,-0.0
11.491,0.1,0.0,-0.0
11.503,-0.0,-0.0,-0.0
11.515,0.1,0.0,0.0
11.6,0.1,0.0,0.0
11.602,-0.0,0.0,0.0
11.61,-0.1,0.0,0.1
11.709,-0.1,0.0,0.1
11.711,-0.1,0.0,0.0
11.713,-0.0,0.0,0.0
11.719,0.2,0.0,0.0
11.721,0.2,0.0,-0.0
11.799,0.1,0.0,-0.0
11.801,0.0,0.0,-0.0
11.804,-0.1,0.0,-0.0
11.81,-0.1,-0.0,-0.0
11.919,-0.1,-0.0,-0.0
11.925,-0.1,-0.0,0.0
11.939,0.0,-0.0,0.0
11.941,0.1,0.0,0.0
11.999,0.1,0.0,0.0
12.001,0.1,-0.0,0.0
12.004,0.0,-0.0,-0.0
12.012,0.1,-0.0,-0.0
12.097,0.1,-0.0,-0.0
12.099,0.0,-0.0,-0.0
12.102,-0.1,-0.0,-0.0
12.108,-0.1,-0.0,-0.0
12.188,-0.1,-0.0,-0.0
12.189,-0.1,-0.0,-0.0
12.196,-0.0,-0.0,-0.1
12.198,-0.0,-0.0,-0.1
12.31,-0.0,-0.0,-0.0
12.321,-0.1,-0.0,-0.0
12.333,-0.1,-0.0,-0.0
12.402,-0.1,-0.0,-0.0
12.404,-0.1,-0.0,-0.0
12.405,-0.1,-0.0,-0.0
12.409,-0.0,0.0,-0.0
12.41,-0.0,0.0,-0.0
12.505,0.0,0.0,-0.0
12.513,0.0,-0.0,-0.0
12.517,0.3,-0.0,-0.0
12.519,0.3,-0.0,-0.0
12.61,0.2,-0.1,-0.0
12.617,0.1,-0.1,-0.0
12.62,0.0,-0.0,-0.0
12.622,-0.0,-0.0,-0.0
12.699,-0.1,-0.0,-0.0
12.705,-0.1,-0.0,-0.0
12.71,-0.0,0.1,0.0
12.712,-0.2,-0.0,-0.1
12.805,-0.1,-0.0,-0.0
12.806,0.0,0.0,0.0
12.809,0.1,0.0,0.0
12.811,0.2,-0.0,0.0
12.877,0.2,-0.0,0.0
12.879,0.1,-0.1,-0.1
12.886,0.0,0.1,-0.1
13.011,-0.0,0.1,-0.0
13.014,-0.1,-0.0,-0.0
13.017,-0.1,-0.1,-0.0
13.101,0.2,0.0,-0.3
13.119,0.1,0.2,-0.1
13.121,-0.1,0.2,0.1
13.131,0.2,0.3,0.5
13.134,-0.2,0.2,0.1
13.21,-0.0,0.4,0.3
13.212,-0.0,0.4,0.1
13.213,0.2,0.5,-0.0
13.304,-0.0,0.2,-0.1
13.305,0.0,0.0,0.0
13.307,0.2,-0.2,0.2
13.309,0.3,-0.3,0.3
13.424,0.1,-0.7,0.1
13.426,-0.4,-1.0,-0.2
13.428,-1.1,-0.8,-0.6
13.429,0.0,0.3,0.6
13.445,-0.4,-0.0,-0.1
13.511,-0.0,-0.0,-0.1
13.513,0.0,-0.0,-0.3
13.514,0.4,0.2,-0.2
13.521,0.4,0.1,-0.1
13.576,0.3,0.1,0.0
13.578,0.2,0.1,0.0
13.581,0.2,0.2,0.1
13.699,-0.0,0.0,-0.0
13.7,-0.1,-0.0,0.0
13.702,0.1,0.0,0.0
13.704,0.1,0.0,-0.0
13.813,0.2,-0.0,-0.0
13.821,0.1,0.0,-0.0
13.823,0.1,-0.0,-0.0
13.824,0.0,-0.0,0.0
13.837,-0.1,-0.1,0.0
13.908,-0.1,-0.0,0.0
13.909,-0.0,0.0,0.0
13.914,0.1,0.0,0.0
13.917,0.1,-0.0,-0.1
14.005,0.2,0.0,-0.0
14.007,0.1,0.1,-0.1
14.008,0.1,0.1,-0.0
14.017,0.0,-0.1,0.0
14.079,-0.0,-0.1,0.0
14.081,-0.0,0.0,0.0
14.083,-0.1,0.0,0.0
14.086,0.0,0.0,0.1
