vertical_Accel_x,vertical_Accel_y,vertical_Accel_z,accel_time_list
0.811,9.218,-1.142,0.0
0.244,9.231,-2.549,0.001
2.736,8.226,-0.008,0.004
1.653,9.435,-2.358,0.005
1.8,9.2,-3.4,0.103
2.059,9.006,-3.006,0.104
1.994,9.029,-3.129,0.106
2.198,9.043,-2.343,0.108
1.984,9.245,-3.245,0.205
1.773,9.204,-3.304,0.207
1.773,9.204,-3.304,0.209
1.865,9.176,-3.276,0.21
1.755,8.792,-3.292,0.299
1.58,8.631,-3.231,0.305
1.553,8.535,-3.235,0.306
1.388,8.159,-3.059,0.308
1.472,8.252,-2.016,0.402
1.363,8.02,-2.289,0.404
1.178,8.021,-2.033,0.406
1.245,7.957,-2.335,0.407
0.577,8.008,-0.731,0.503
0.815,7.862,-1.446,0.505
0.877,7.808,-1.331,0.506
0.869,7.477,-1.308,0.508
0.502,6.814,0.503,0.609
0.189,6.729,0.884,0.612
-0.955,5.743,2.218,0.614
-1.969,4.4,3.946,0.616
-1.224,6.329,9.584,0.7
-2.621,3.517,13.233,0.701
-2.358,3.538,12.547,0.703
-1.325,5.257,10.372,0.713
-0.7,-0.6,11.7,0.8
-1.187,0.085,11.855,0.802
-1.425,1.057,12.17,0.818
-2.953,1.36,11.381,0.82
-2.099,2.15,10.977,0.9
-3.739,-2.169,11.488,0.901
5.879,-2.96,29.578,0.903
6.996,12.898,10.291,0.905
0.16,7.908,4.544,1.0
-0.18,7.716,5.788,1.001
-0.42,5.044,7.392,1.008
-0.86,3.352,8.136,1.01
1.053,5.44,7.219,1.099
1.202,5.526,8.079,1.105
0.479,4.109,9.428,1.115
0.249,3.287,9.76,1.119
0.442,3.681,8.943,1.201
0.74,3.655,8.964,1.203
0.738,3.428,9.185,1.208
0.692,3.294,9.183,1.21
0.485,3.289,9.266,1.301
0.438,3.528,9.285,1.303
0.485,3.889,9.066,1.305
0.372,3.704,9.011,1.306
0.279,3.809,9.028,1.408
0.255,3.966,9.098,1.41
0.164,3.998,8.994,1.411
0.257,3.892,8.977,1.413
0.279,3.809,9.028,1.501
0.279,3.509,9.128,1.512
0.419,3.464,8.992,1.513
0.44,3.455,9.164,1.52
0.577,3.483,9.149,1.603
0.53,3.423,9.268,1.605
0.53,3.423,9.268,1.607
0.509,3.432,9.096,1.61
0.762,3.572,9.015,1.701
0.76,3.345,9.236,1.706
0.692,3.294,9.183,1.708
0.509,3.432,9.096,1.709
0.442,3.681,8.943,1.801
0.415,3.611,9.234,1.803
0.325,3.643,9.13,1.804
0.372,3.704,9.011,1.806
0.464,3.598,8.994,1.908
0.37,3.477,9.232,1.91
0.417,3.538,9.113,1.912
0.349,3.487,9.06,1.913
0.394,3.321,9.162,2.001
0.509,3.432,9.096,2.003
0.509,3.432,9.096,2.004
0.487,3.515,9.045,2.006
0.487,3.515,9.045,2.101
0.555,3.566,9.098,2.103
0.349,3.487,9.06,2.104
0.53,3.423,9.268,2.106
0.557,3.492,8.977,2.201
0.485,3.589,9.166,2.203
0.485,3.589,9.166,2.208
0.372,3.404,9.111,2.21
0.347,3.56,9.181,2.301
0.394,3.621,9.062,2.303
0.485,3.589,9.166,2.304
0.485,3.589,9.166,2.31
0.417,3.538,9.113,2.401
0.485,3.589,9.166,2.403
0.485,3.589,9.166,2.408
0.419,3.464,8.992,2.409
0.668,3.151,9.353,2.501
0.645,3.234,9.302,2.503
0.6,3.4,9.2,2.504
0.625,3.543,9.03,2.506
0.668,3.451,9.253,2.606
0.577,3.483,9.149,2.608
0.44,3.455,9.164,2.609
0.487,3.515,9.045,2.619
0.508,3.206,9.317,2.704
0.485,3.289,9.266,2.706
0.532,3.349,9.147,2.707
0.602,3.626,8.979,2.799
0.6,3.4,9.2,2.806
0.555,3.266,9.198,2.808
0.532,3.349,9.147,2.809
0.577,3.483,9.149,2.899
0.6,3.4,9.2,2.903
0.532,3.349,9.147,2.904
0.555,3.266,9.198,2.906
0.577,3.483,9.149,2.999
0.508,3.506,9.217,3.007
0.555,3.266,9.198,3.009
0.462,3.372,9.215,3.018
0.532,3.349,9.147,3.099
0.625,3.543,9.03,3.102
0.577,3.483,9.149,3.104
0.532,3.649,9.047,3.106
0.509,3.432,9.096,3.199
0.485,3.289,9.266,3.203
0.532,3.349,9.147,3.205
0.6,3.4,9.2,3.211
0.509,3.432,9.096,3.299
0.577,3.483,9.149,3.302
0.647,3.46,9.081,3.304
0.67,3.377,9.132,3.306
0.577,3.483,9.149,3.399
0.532,3.349,9.147,3.402
0.532,3.349,9.147,3.412
0.462,3.372,9.215,3.414
0.532,3.349,9.147,3.498
0.647,3.46,9.081,3.502
0.6,3.4,9.2,3.503
0.6,3.4,9.2,3.508
0.555,3.266,9.198,3.599
0.577,3.483,9.149,3.608
0.647,3.46,9.081,3.61
0.6,3.4,9.2,3.611
0.555,3.266,9.198,3.699
0.6,3.4,9.2,3.702
0.6,3.4,9.2,3.704
0.555,3.266,9.198,3.706
0.577,3.183,9.249,3.799
0.509,3.432,9.096,3.818
0.532,3.349,9.147,3.819
0.462,3.372,9.215,3.821
0.555,3.266,9.198,3.899
0.509,3.432,9.096,3.907
0.555,3.266,9.198,3.909
0.44,3.155,9.264,3.911
0.417,3.238,9.213,3.999
0.623,3.617,9.151,4.006
0.6,3.4,9.2,4.007
0.462,3.372,9.215,4.009
0.555,3.266,9.198,4.099
0.462,3.372,9.215,4.102
0.509,3.432,9.096,4.104
0.532,3.349,9.147,4.106
0.555,3.266,9.198,4.199
0.532,3.349,9.147,4.21
0.417,3.238,9.213,4.215
0.325,3.043,9.33,4.217
0.37,3.177,9.332,4.299
0.325,3.343,9.23,4.306
0.487,3.515,9.045,4.307
0.532,3.649,9.047,4.309
0.6,3.4,9.2,4.399
0.6,3.1,9.3,4.41
0.577,3.183,9.249,4.411
0.555,3.266,9.198,4.503
0.555,3.266,9.198,4.505
0.555,2.966,9.298,4.509
0.577,3.183,9.249,4.512
0.577,3.183,9.249,4.599
0.67,3.077,9.232,4.608
0.647,3.16,9.181,4.612
0.602,3.026,9.179,4.614
0.532,3.049,9.247,4.699
0.464,2.998,9.194,4.7
0.487,2.915,9.245,4.704
0.487,2.915,9.245,4.705
0.487,2.915,9.245,4.799
0.394,3.021,9.262,4.805
0.442,2.781,9.243,4.808
0.234,2.775,9.326,4.81
0.234,2.775,9.326,4.9
0.234,2.775,9.326,4.901
0.051,2.613,9.34,4.905
0.075,2.457,9.27,4.906
-0.038,2.272,9.215,4.999
-0.109,2.368,9.404,5.001
-0.177,2.317,9.351,5.008
-0.221,2.109,9.228,5.01
-0.083,2.138,9.213,5.099
-0.406,2.021,9.362,5.1
-0.475,1.743,9.53,5.104
-0.545,1.766,9.598,5.105
2.058,1.642,9.261,5.199
1.935,1.598,9.316,5.201
1.927,1.373,9.118,5.206
1.854,1.38,8.962,5.211
1.611,-0.691,9.679,5.299
1.877,-0.579,9.247,5.3
-0.351,-2.281,12.802,5.304
2.551,-1.419,7.498,5.315
1.119,-1.545,9.362,5.399
1.464,-1.149,8.172,5.4
-1.077,-2.221,11.653,5.405
2.445,-2.804,7.511,5.407
1.53,-1.663,9.319,5.499
1.43,-4.463,10.219,5.5
1.3,-2.9,7.5,5.504
2.604,-4.57,7.515,5.51
3.454,-3.753,8.412,5.599
3.109,-3.42,7.67,5.602
3.666,-4.318,8.72,5.605
3.652,-4.323,8.819,5.607
4.083,-4.291,8.1,5.699
2.76,-3.111,7.7,5.701
2.528,-2.549,8.0,5.721
3.087,-4.204,8.0,5.722
3.211,-5.54,8.6,5.804
2.683,-4.691,8.3,5.805
2.474,-3.408,8.7,5.808
5.158,-1.855,11.6,5.81
18.778,-4.91,12.581,5.899
29.602,-5.93,17.019,5.9
19.614,0.729,12.143,5.904
16.223,8.846,5.129,5.909
10.831,10.527,-2.729,6.001
8.54,6.9,0.28,6.003
-5.34,-3.9,-4.38,6.007
-6.603,-1.779,-10.143,6.099
4.68,16.1,-22.24,6.1
-36.923,8.221,3.117,6.106
-45.273,-8.916,13.407,6.118
-20.074,-18.779,53.302,6.198
10.006,-19.917,16.608,6.2
0.711,3.366,-2.185,6.202
-5.664,-10.008,-4.419,6.206
0.01,-4.032,2.965,6.295
8.581,-21.475,-22.15,6.297
7.457,2.026,29.749,6.298
-21.781,-31.525,13.65,6.302
0.628,-0.54,26.996,6.397
-0.344,-8.58,5.292,6.399
-5.388,-9.46,3.184,6.4
1.788,0.216,-2.08,6.5
1.668,-2.124,0.42,6.501
1.9,-0.2,2.3,6.503
1.108,2.456,3.02,6.516
6.356,-3.108,6.54,6.52
2.121,-5.801,10.244,6.599
-3.056,-3.337,11.561,6.602
-0.406,-7.195,13.08,6.616
4.476,15.253,-1.354,6.621
11.629,-1.971,-20.094,6.699
-3.237,-1.037,15.573,6.709
-3.759,2.241,17.488,6.711
-0.267,3.033,23.567,6.714
0.829,-2.54,26.669,6.798
-1.464,-5.352,26.688,6.799
-2.267,-4.918,23.051,6.801
-1.885,-6.17,11.984,6.806
-1.677,-1.985,7.504,6.898
0.257,1.838,4.609,6.908
2.725,6.583,2.921,6.909
-0.732,1.145,0.111,6.912
1.366,-2.323,3.594,6.999
-0.202,0.132,8.183,7.0
-0.326,0.249,10.562,7.002
0.592,1.128,6.032,7.009
-0.089,0.208,7.702,7.098
0.449,1.266,9.242,7.1
2.321,2.247,11.187,7.102
3.792,2.328,13.832,7.105
4.038,2.258,12.84,7.198
3.992,2.628,11.432,7.2
3.879,2.853,10.713,7.202
1.562,1.042,9.26,7.205
-0.053,0.298,7.725,7.3
-0.491,0.24,6.885,7.302
-0.274,0.251,6.938,7.303
0.421,0.747,7.387,7.306
0.832,0.855,7.189,7.399
0.981,1.021,6.73,7.401
1.16,1.174,8.043,7.402
0.74,0.426,11.257,7.405
0.821,0.147,12.687,7.498
1.138,-0.142,13.34,7.503
1.455,-0.33,13.592,7.507
1.481,0.021,13.03,7.512
1.309,0.24,11.985,7.598
1.147,0.398,10.725,7.6
0.936,0.391,9.323,7.602
0.815,0.443,7.536,7.613
0.86,0.474,7.343,7.697
0.906,0.404,7.551,7.699
0.932,0.555,7.789,7.701
1.247,0.698,8.925,7.798
1.491,0.76,9.615,7.8
1.77,0.913,10.328,7.802
2.036,0.991,10.923,7.803
2.053,1.202,11.375,7.878
2.026,1.051,11.138,7.879
1.851,0.934,10.558,7.881
1.572,0.781,9.845,7.883
1.189,0.692,8.598,7.997
1.094,0.596,8.249,8.013
1.013,0.575,8.019,8.015
1.081,0.521,8.13,8.016
1.211,0.608,8.902,8.101
1.342,0.694,9.674,8.103
1.436,0.691,10.423,8.106
1.517,0.611,11.053,8.109
1.508,0.572,11.668,8.198
1.575,0.617,11.379,8.201
1.494,0.696,10.749,8.206
1.491,0.66,10.015,8.208
1.234,0.623,8.806,8.299
1.189,0.692,8.598,8.3
1.198,0.632,8.383,8.302
1.211,0.708,8.502,8.304
1.432,0.755,9.289,8.398
1.504,0.836,9.734,8.4
1.598,0.932,10.083,8.402
1.657,0.938,10.409,8.411
1.689,0.792,10.498,8.498
1.63,0.787,10.172,8.506
1.558,0.706,9.726,8.508
1.477,0.685,9.496,8.509
1.292,0.628,9.132,8.598
1.202,0.668,9.117,8.6
1.202,0.668,9.117,8.605
1.283,0.689,9.347,8.606
1.445,0.73,9.808,8.698
1.377,0.685,10.096,8.699
1.481,0.721,10.23,8.701
1.481,0.721,10.23,8.708
1.491,0.66,10.015,8.798
1.481,0.821,9.83,8.8
1.491,0.76,9.615,8.809
1.387,0.725,9.481,8.819
1.342,0.794,9.274,8.898
1.342,0.794,9.274,8.899
1.409,0.74,9.385,8.901
1.387,0.725,9.481,8.903
1.445,0.73,9.808,9.007
1.458,0.806,9.926,9.01
1.549,0.766,9.942,9.011
1.526,0.751,10.038,9.013
1.423,0.715,9.904,9.098
1.445,0.73,9.808,9.099
1.364,0.709,9.577,9.101
1.374,0.649,9.362,9.103
1.387,0.725,9.481,9.198
1.364,0.709,9.577,9.221
1.4,0.8,9.6,9.224
1.377,0.785,9.696,9.225
1.481,0.821,9.83,9.297
1.481,0.821,9.83,9.299
1.458,0.806,9.926,9.301
1.445,0.73,9.808,9.302
1.491,0.76,9.615,9.402
1.364,0.709,9.577,9.403
1.387,0.725,9.481,9.405
1.387,0.725,9.481,9.407
1.4,0.8,9.6,9.499
1.377,0.785,9.696,9.501
1.445,0.73,9.808,9.503
1.445,0.73,9.808,9.504
1.423,0.715,9.904,9.618
1.445,0.73,9.808,9.619
1.445,0.73,9.808,9.621
1.468,0.745,9.711,9.623
1.491,0.76,9.615,9.699
1.364,0.709,9.577,9.701
1.364,0.709,9.577,9.702
1.491,0.76,9.615,9.704
1.491,0.76,9.615,9.8
1.468,0.745,9.711,9.802
1.445,0.73,9.808,9.803
1.423,0.715,9.904,9.805
1.445,0.73,9.808,9.899
1.468,0.745,9.711,9.901
1.468,0.745,9.711,9.902
1.364,0.709,9.577,9.904
1.455,0.67,9.592,10.007
1.364,0.709,9.577,10.008
1.4,0.8,9.6,10.01
1.468,0.745,9.711,10.015
1.445,0.73,9.808,10.105
1.445,0.73,9.808,10.106
1.445,0.73,9.808,10.108
1.445,0.73,9.808,10.11
1.377,0.785,9.696,10.203
1.4,0.8,9.6,10.205
1.364,0.709,9.577,10.207
1.455,0.67,9.592,10.208
1.432,0.655,9.689,10.303
1.468,0.745,9.711,10.305
1.468,0.745,9.711,10.306
1.445,0.73,9.808,10.318
1.445,0.73,9.808,10.4
1.445,0.73,9.808,10.402
1.468,0.745,9.711,10.408
1.364,0.709,9.577,10.41
1.455,0.67,9.592,10.499
1.377,0.785,9.696,10.501
1.468,0.745,9.711,10.502
1.377,0.785,9.696,10.504
1.468,0.745,9.711,10.599
1.468,0.745,9.711,10.601
1.468,0.745,9.711,10.603
1.468,0.745,9.711,10.604
1.432,0.655,9.689,10.699
1.455,0.67,9.592,10.701
1.491,0.76,9.615,10.716
1.468,0.745,9.711,10.718
1.377,0.785,9.696,10.799
1.377,0.785,9.696,10.801
1.377,0.785,9.696,10.802
1.468,0.745,9.711,10.804
1.468,0.745,9.711,10.899
1.468,0.745,9.711,10.901
1.468,0.745,9.711,10.907
1.468,0.745,9.711,10.909
1.468,0.745,9.711,11.006
1.377,0.785,9.696,11.012
1.377,0.785,9.696,11.014
1.468,0.745,9.711,11.097
1.468,0.745,9.711,11.1
1.468,0.745,9.711,11.121
1.468,0.745,9.711,11.123
1.468,0.745,9.711,11.197
1.468,0.745,9.711,11.201
1.377,0.785,9.696,11.202
1.468,0.745,9.711,11.209
1.468,0.745,9.711,11.299
1.455,0.67,9.592,11.307
1.432,0.655,9.689,11.308
1.377,0.785,9.696,11.31
1.468,0.745,9.711,11.397
1.377,0.785,9.696,11.401
1.377,0.785,9.696,11.402
1.468,0.745,9.711,11.404
1.468,0.745,9.711,11.497
1.455,0.67,9.592,11.51
1.455,0.67,9.592,11.513
1.491,0.66,10.015,11.514
1.445,0.73,9.808,11.599
1.377,0.785,9.696,11.607
1.364,0.709,9.577,11.609
1.364,0.709,9.577,11.611
1.364,0.709,9.577,11.697
1.342,0.694,9.674,11.701
1.455,0.67,9.592,11.703
1.364,0.709,9.577,11.712
1.364,0.709,9.577,11.797
1.377,0.785,9.696,11.8
1.423,0.715,9.904,11.802
1.423,0.715,9.904,11.803
1.491,0.66,10.015,11.897
1.508,0.672,11.268,11.912
1.453,0.702,11.675,11.921
1.504,0.536,10.934,11.923
1.745,0.33,9.608,12.017
1.419,0.679,9.17,12.022
2.913,-0.225,10.419,12.025
8.56,-1.826,12.743,12.027
15.825,3.239,16.486,12.097
8.086,27.025,13.161,12.101
7.843,21.635,3.908,12.102
25.634,17.937,7.397,12.104
25.188,-2.282,15.988,12.197
12.608,-10.045,7.475,12.2
8.061,-15.775,6.727,12.202
2.79,-18.269,7.257,12.204
-11.492,-3.094,2.683,12.297
-22.372,-1.004,-3.989,12.301
-27.357,0.808,-10.923,12.303
-23.44,-4.855,-0.936,12.305
-12.359,-1.211,-22.414,12.398
-24.12,-7.67,-36.171,12.412
-30.93,-17.105,-28.357,12.413
-33.162,-12.508,-20.2,12.415
-32.476,-21.218,11.918,12.497
-31.253,-10.135,10.635,12.505
-28.243,-4.984,7.584,12.506
-23.243,1.316,7.784,12.508
-13.647,10.617,-13.891,12.596
-20.609,27.921,-33.289,12.599
14.321,20.647,-10.877,12.601
-16.077,7.181,-17.848,12.697
-2.801,4.325,-1.422,12.699
0.332,9.458,1.845,12.702
1.869,9.617,0.476,12.703
4.956,8.514,-0.782,12.798
7.64,10.085,-3.204,12.799
2.903,8.426,-2.935,12.802
1.759,9.14,-2.617,12.804
1.444,9.286,-2.318,12.897
0.685,9.046,-3.001,12.898
2.615,7.854,-4.699,12.902
3.054,7.763,-3.925,12.905
3.309,8.802,-3.328,12.985
3.088,9.372,-3.137,12.986
3.387,8.897,-3.258,12.99
3.011,8.753,-3.785,13.002
2.733,8.733,-3.733,13.097
2.51,8.677,-3.406,13.1
2.271,8.668,-1.981,13.105
2.824,9.056,-3.127,13.202
3.414,9.078,-3.82,13.204
3.181,8.445,-2.987,13.205
0.344,10.686,-1.118,13.209
1.987,10.397,-2.858,13.21
3.224,8.756,-3.027,13.305
1.791,7.698,-0.272,13.307
2.93,9.708,-2.698,13.31
2.005,9.076,-2.092,13.312
2.246,8.537,-1.775,13.373
2.459,8.94,-2.417,13.374
3.07,9.192,-3.302,13.388
3.197,8.774,-3.165,13.39
2.712,9.028,-2.963,13.495
1.744,9.186,-1.518,13.496
1.966,9.191,-1.488,13.5
2.194,9.148,-1.829,13.598
2.529,9.232,-2.319,13.599
2.413,9.303,-2.142,13.601
2.162,9.266,-1.953,13.604
2.361,9.19,-2.074,13.606
2.417,9.204,-2.156,13.675
2.473,9.218,-2.238,13.678
2.218,9.28,-2.034,13.681
2.334,9.209,-2.212,13.683
