vertical_Accel_x,vertical_Accel_y,vertical_Accel_z,accel_time_list
-0.693,-8.633,4.853,0.0
-0.433,-8.833,5.033,0.002
-0.478,-9.111,5.178,0.004
-0.46,-9.2,5.22,0.005
-0.24,-8.3,4.18,0.102
-1.104,-8.178,4.564,0.104
-0.66,-8.4,4.62,0.105
-0.913,-8.333,4.393,0.107
-0.602,-8.289,3.882,0.114
0.077,-8.5,3.715,0.199
0.391,-8.743,4.187,0.201
0.551,-8.929,4.176,0.203
0.443,-8.629,3.914,0.206
-0.388,-8.729,3.568,0.3
0.181,-8.429,4.022,0.302
0.134,-7.971,3.801,0.303
-0.415,-6.7,4.377,0.316
-0.671,-5.686,3.543,0.403
-1.305,-5.679,2.104,0.405
-1.49,-5.282,0.812,0.406
-2.271,-5.066,-1.603,0.41
-1.291,-4.653,-4.117,0.499
-2.034,-5.487,-5.232,0.501
-1.054,-6.03,-5.968,0.507
-2.104,-8.493,-5.794,0.51
25.064,-20.748,0.491,0.6
12.328,-22.897,-39.018,0.606
-7.148,-5.062,-16.737,0.607
-2.676,-7.388,-2.892,0.611
-1.149,-7.224,-5.416,0.718
2.78,-7.91,-4.273,0.72
5.071,-10.014,-4.743,0.73
2.602,-9.349,-6.233,0.733
2.143,-7.429,-4.386,0.799
1.908,-7.096,-3.231,0.801
2.924,-6.888,-3.292,0.802
4.582,-6.959,-6.406,0.809
4.515,-5.519,-7.719,0.901
3.959,-4.451,-8.351,0.903
3.451,-3.821,-8.421,0.905
3.518,-4.501,-8.601,0.912
3.482,-5.199,-8.199,0.999
3.187,-5.864,-7.464,1.001
3.063,-6.315,-6.915,1.002
2.767,-6.58,-6.58,1.006
2.891,-6.629,-6.629,1.103
2.732,-7.078,-6.378,1.114
3.028,-7.013,-6.513,1.116
3.09,-6.788,-6.788,1.12
3.09,-6.588,-6.988,1.199
3.09,-6.488,-7.088,1.201
3.014,-6.277,-7.077,1.206
3.014,-6.477,-6.877,1.209
3.063,-6.415,-6.815,1.298
3.063,-6.415,-6.815,1.3
3.125,-6.39,-6.89,1.302
3.173,-6.028,-7.128,1.401
3.125,-6.09,-7.19,1.403
3.187,-6.164,-7.164,1.404
3.31,-6.312,-7.112,1.406
3.284,-6.14,-6.94,1.499
3.284,-6.24,-6.84,1.509
3.345,-6.314,-6.814,1.51
3.345,-6.314,-6.814,1.512
3.297,-6.276,-6.976,1.599
3.345,-6.214,-6.914,1.601
3.284,-6.24,-6.84,1.602
3.407,-6.189,-6.989,1.604
3.345,-6.114,-7.014,1.699
3.284,-6.04,-7.04,1.701
3.345,-6.114,-7.014,1.703
3.284,-6.14,-6.94,1.704
3.284,-6.14,-6.94,1.799
3.235,-6.202,-7.002,1.801
3.297,-6.176,-7.076,1.802
3.297,-6.176,-7.076,1.804
3.359,-6.151,-7.151,1.899
3.407,-6.089,-7.089,1.901
3.284,-6.04,-7.04,1.903
3.345,-6.014,-7.114,1.904
3.284,-6.04,-7.04,1.999
3.284,-6.04,-7.04,2.001
3.394,-6.053,-6.953,2.002
3.394,-6.053,-6.953,2.004
3.394,-5.953,-7.053,2.098
3.332,-5.978,-6.978,2.1
3.394,-5.953,-7.053,2.102
3.456,-6.027,-7.027,2.103
3.345,-6.014,-7.114,2.199
3.284,-6.04,-7.04,2.201
3.222,-5.966,-7.066,2.202
3.222,-5.966,-7.066,2.204
3.222,-5.966,-7.066,2.299
3.222,-5.966,-7.066,2.301
3.173,-5.928,-7.228,2.302
3.111,-5.854,-7.254,2.304
3.173,-5.828,-7.328,2.399
3.063,-5.915,-7.315,2.401
3.063,-5.815,-7.415,2.402
3.063,-5.815,-7.415,2.404
3.001,-5.741,-7.441,2.499
2.939,-5.767,-7.367,2.5
2.988,-5.705,-7.305,2.502
2.877,-5.893,-7.193,2.504
3.001,-5.541,-7.641,2.599
3.063,-5.515,-7.715,2.601
2.754,-5.744,-7.244,2.602
2.926,-5.831,-7.131,2.612
2.891,-5.929,-7.329,2.699
2.891,-5.729,-7.529,2.7
2.939,-5.667,-7.467,2.702
2.767,-5.58,-7.58,2.704
2.767,-5.68,-7.48,2.799
2.657,-5.768,-7.468,2.8
2.643,-5.632,-7.432,2.802
2.643,-5.632,-7.432,2.804
3.967,-5.267,-7.067,2.901
4.0,-5.3,-7.2,2.912
4.0,-5.3,-7.2,2.914
3.933,-5.233,-7.233,2.915
3.767,-5.367,-7.167,2.999
3.9,-5.4,-7.2,3.006
3.767,-5.467,-7.367,3.016
3.667,-5.367,-7.267,3.018
3.957,-4.064,-7.957,3.098
3.957,-4.064,-7.957,3.1
3.496,-4.712,-7.894,3.107
3.643,-4.471,-7.914,3.109
3.476,-4.373,-7.963,3.2
3.402,-4.494,-7.953,3.206
3.367,-4.398,-8.051,3.208
3.294,-4.518,-8.041,3.21
3.22,-4.639,-8.031,3.301
3.014,-4.757,-7.971,3.302
2.931,-4.708,-7.996,3.304
2.896,-4.612,-8.094,3.31
2.68,-4.661,-8.269,3.404
2.704,-4.688,-8.406,3.414
2.763,-4.81,-8.445,3.416
2.763,-4.81,-8.445,3.417
2.729,-4.714,-8.543,3.5
2.596,-4.712,-8.494,3.502
2.498,-4.806,-8.347,3.504
2.439,-4.684,-8.308,3.505
2.257,-4.729,-8.186,3.606
2.065,-4.704,-8.298,3.608
2.163,-4.51,-8.245,3.609
2.031,-4.508,-8.196,3.611
1.884,-4.749,-8.176,3.7
1.898,-4.506,-8.147,3.702
1.971,-4.386,-8.157,3.703
1.912,-4.263,-8.118,3.705
3.227,-2.867,-8.257,3.821
3.014,-2.833,-7.878,3.823
2.661,-3.033,-7.69,3.825
2.527,-3.067,-7.657,3.827
2.216,-2.967,-7.604,3.9
1.998,-3.067,-7.375,3.902
1.78,-3.167,-7.145,3.903
1.606,-3.5,-6.976,3.915
0.895,-0.703,-7.738,4.0
1.053,-0.828,-7.641,4.002
1.816,-1.071,-7.546,4.008
0.316,-1.391,-7.786,4.01
-0.622,-1.318,-8.054,4.104
-0.784,-1.267,-8.545,4.106
-0.256,-2.565,-7.692,4.108
-0.654,-2.383,-8.764,4.109
-0.192,-6.812,-13.824,4.2
-1.539,-9.192,-17.684,4.202
-4.139,-11.092,-16.784,4.208
-1.986,-14.071,-13.957,4.21
11.278,-12.702,-6.471,4.3
10.658,-12.478,3.589,4.302
6.537,-5.201,2.151,4.303
9.228,-1.215,-1.238,4.305
-19.753,-7.971,-12.147,4.403
-25.886,-16.137,-37.48,4.405
2.125,-7.855,-26.592,4.407
22.747,20.069,22.841,4.408
-5.954,-26.289,-35.251,4.506
10.882,-19.796,-38.717,4.507
-1.393,-11.441,-12.853,4.509
1.578,-12.576,-10.641,4.519
1.588,-7.509,-3.46,4.603
3.697,-4.677,-6.465,4.605
-0.397,-3.723,-8.635,4.606
-1.375,-3.381,-4.98,4.699
-1.934,-0.751,-6.114,4.702
-1.453,-0.114,-6.904,4.704
-0.102,0.092,-7.833,4.708
1.158,0.829,-7.859,4.823
2.043,-0.179,-8.76,4.826
4.016,0.158,-9.518,4.828
6.66,-0.27,-7.496,4.829
9.613,-1.672,-3.27,4.9
9.642,-0.24,-5.362,4.903
10.594,1.274,-6.742,4.905
9.955,1.889,-7.132,4.918
10.685,1.896,-6.677,4.92
4.565,1.122,-6.43,4.996
4.391,-0.67,-6.083,4.997
4.461,-2.213,-6.522,4.999
5.022,-3.126,-6.343,5.098
4.383,-4.339,-5.665,5.101
3.9,-5.7,-5.9,5.103
3.241,-6.079,-6.822,5.105
2.325,-7.081,-7.68,5.199
-0.029,-7.843,-8.014,5.209
-0.079,-8.019,-7.186,5.211
-0.284,-7.825,-6.457,5.213
-0.181,-7.922,-6.471,5.303
0.211,-8.084,-6.771,5.306
0.456,-7.966,-7.214,5.316
0.567,-7.749,-7.886,5.318
0.716,-7.625,-7.657,5.397
0.751,-7.224,-7.329,5.404
0.642,-7.037,-7.271,5.406
0.667,-6.949,-6.986,5.407
0.654,-6.769,-6.9,5.498
0.602,-6.497,-7.014,5.501
0.433,-6.351,-7.114,5.503
0.359,-6.211,-7.186,5.504
2.226,-6.27,-6.987,5.599
2.213,-6.185,-7.194,5.606
2.162,-6.145,-7.319,5.608
2.185,-6.234,-7.357,5.61
2.134,-6.194,-7.483,5.698
2.172,-6.149,-7.564,5.709
2.172,-6.149,-7.564,5.71
2.238,-6.055,-7.481,5.712
2.238,-6.055,-7.481,5.798
2.153,-5.921,-7.323,5.802
2.181,-5.872,-7.16,5.803
2.255,-6.002,-7.072,5.805
2.306,-6.043,-6.947,5.898
2.315,-6.266,-6.943,5.904
2.315,-6.266,-6.943,5.906
2.362,-6.445,-7.019,5.911
2.385,-6.534,-7.057,5.998
2.447,-6.579,-7.177,6.001
2.343,-6.717,-7.179,6.007
2.381,-6.672,-7.26,6.008
2.381,-6.672,-7.26,6.098
2.311,-6.404,-7.145,6.109
2.311,-6.404,-7.145,6.117
2.264,-6.226,-7.068,6.119
2.279,-6.091,-7.111,6.2
2.279,-6.091,-7.111,6.204
2.279,-6.091,-7.111,6.205
2.279,-6.091,-7.111,6.298
2.302,-6.181,-7.149,6.3
2.298,-6.319,-7.351,6.303
2.298,-6.319,-7.351,6.309
2.298,-6.319,-7.351,6.398
2.349,-6.36,-7.226,6.4
2.326,-6.27,-7.187,6.407
2.287,-6.315,-7.106,6.409
2.264,-6.226,-7.068,6.498
2.264,-6.226,-7.068,6.518
2.287,-6.315,-7.106,6.522
2.287,-6.315,-7.106,6.524
2.287,-6.315,-7.106,6.598
2.377,-6.311,-7.062,6.603
2.287,-6.315,-7.106,6.606
2.415,-6.266,-7.143,6.608
2.287,-6.315,-7.106,6.723
2.326,-6.27,-7.187,6.724
2.326,-6.27,-7.187,6.728
2.326,-6.27,-7.187,6.729
2.326,-6.27,-7.187,6.799
2.302,-6.181,-7.149,6.806
2.302,-6.181,-7.149,6.81
2.302,-6.181,-7.149,6.811
2.264,-6.226,-7.068,6.821
2.287,-6.315,-7.106,6.896
2.287,-6.315,-7.106,6.901
2.287,-6.315,-7.106,6.903
2.287,-6.315,-7.106,6.997
2.287,-6.315,-7.106,6.999
2.287,-6.315,-7.106,7.002
2.287,-6.315,-7.106,7.004
2.287,-6.315,-7.106,7.1
2.287,-6.315,-7.106,7.101
2.287,-6.315,-7.106,7.104
2.326,-6.27,-7.187,7.106
2.287,-6.315,-7.106,7.198
2.302,-6.181,-7.149,7.199
2.264,-6.226,-7.068,7.203
2.302,-6.181,-7.149,7.213
2.326,-6.27,-7.187,7.299
2.264,-6.226,-7.068,7.301
2.326,-6.27,-7.187,7.306
2.287,-6.315,-7.106,7.308
2.287,-6.315,-7.106,7.402
2.287,-6.315,-7.106,7.404
2.287,-6.315,-7.106,7.407
2.287,-6.315,-7.106,7.409
2.287,-6.315,-7.106,7.498
2.264,-6.226,-7.068,7.5
2.264,-6.226,-7.068,7.503
2.287,-6.315,-7.106,7.509
2.326,-6.27,-7.187,7.598
2.287,-6.315,-7.106,7.603
2.287,-6.315,-7.106,7.616
2.287,-6.315,-7.106,7.617
2.287,-6.315,-7.106,7.701
2.287,-6.315,-7.106,7.703
2.326,-6.27,-7.187,7.706
2.264,-6.226,-7.068,7.708
2.326,-6.27,-7.187,7.798
2.326,-6.27,-7.187,7.799
2.264,-6.226,-7.068,7.806
2.287,-6.315,-7.106,7.808
2.264,-6.226,-7.068,7.897
2.326,-6.27,-7.187,7.899
2.287,-6.315,-7.106,7.902
2.287,-6.315,-7.106,8.002
2.287,-6.315,-7.106,8.004
2.326,-6.27,-7.187,8.006
2.326,-6.27,-7.187,8.018
2.326,-6.27,-7.187,8.097
2.326,-6.27,-7.187,8.099
2.326,-6.27,-7.187,8.101
2.287,-6.315,-7.106,8.104
2.287,-6.315,-7.106,8.198
2.287,-6.315,-7.106,8.203
2.326,-6.27,-7.187,8.204
2.287,-6.315,-7.106,8.208
2.287,-6.315,-7.106,8.323
2.287,-6.315,-7.106,8.325
2.264,-6.226,-7.068,8.327
2.326,-6.27,-7.187,8.33
2.287,-6.315,-7.106,8.399
2.326,-6.27,-7.187,8.407
2.326,-6.27,-7.187,8.419
2.236,-6.274,-7.232,8.422
2.326,-6.27,-7.187,8.424
2.326,-6.27,-7.187,8.497
2.326,-6.27,-7.187,8.499
2.364,-6.226,-7.268,8.504
2.313,-6.185,-7.394,8.599
2.247,-6.279,-7.477,8.601
2.36,-6.364,-7.47,8.602
2.34,-6.136,-7.23,8.606
2.349,-6.36,-7.226,8.698
2.455,-6.502,-7.872,8.7
2.306,-6.543,-7.347,8.701
2.187,-6.315,-6.906,8.709
2.23,-6.632,-7.185,8.798
2.391,-6.677,-7.504,8.807
2.387,-6.315,-7.306,8.809
2.081,-5.872,-6.96,8.812
1.877,-5.867,-7.076,8.899
2.026,-5.656,-7.259,8.904
2.282,-5.638,-7.468,8.906
2.234,-5.349,-7.886,8.913
2.216,-5.388,-8.054,8.997
2.091,-5.232,-8.195,8.999
2.166,-4.751,-8.014,9.001
2.488,-4.509,-8.46,9.004
2.529,-4.378,-8.494,9.098
2.577,-4.467,-8.776,9.101
2.702,-4.348,-8.757,9.103
2.786,-4.361,-8.703,9.107
4.492,-3.831,-7.533,9.197
4.543,-3.979,-7.66,9.199
4.664,-3.518,-7.39,9.201
4.899,-3.15,-7.381,9.204
5.221,-3.339,-8.13,9.297
4.81,-3.345,-8.306,9.299
4.259,-3.021,-8.278,9.301
5.89,-2.655,-7.894,9.305
6.119,-0.905,-6.89,9.397
6.047,-0.507,-7.167,9.399
6.493,0.287,-7.733,9.401
8.3,-1.0,-6.5,9.405
8.467,-0.312,-5.355,9.497
8.576,-0.146,-5.13,9.499
8.734,0.475,-4.909,9.5
7.785,1.657,-4.341,9.512
9.036,0.985,-3.857,9.597
8.136,1.785,-3.757,9.598
7.749,2.206,-3.604,9.6
9.089,3.517,-0.751,9.697
8.763,4.059,-0.377,9.699
8.663,4.299,-0.197,9.7
8.847,4.324,-0.073,9.702
9.045,3.519,0.728,9.797
8.466,4.236,0.504,9.799
8.858,2.842,1.453,9.8
9.081,2.879,1.094,9.802
8.811,4.589,1.937,9.897
7.154,4.626,3.418,9.899
8.783,5.737,0.561,9.9
8.385,4.995,2.828,9.902
7.877,5.096,2.515,9.997
7.632,4.489,2.045,10.0
7.474,5.162,2.151,10.006
8.164,6.077,1.991,10.007
5.648,6.002,4.87,10.086
6.243,5.806,5.711,10.088
5.614,5.469,6.137,10.09
7.219,6.105,4.876,10.092
6.529,5.357,5.214,10.177
5.104,5.817,4.348,10.178
5.77,6.378,3.865,10.18
5.935,5.739,4.283,10.182
5.333,5.313,5.693,10.304
5.105,5.096,5.959,10.305
7.333,5.533,4.733,10.307
8.829,5.857,4.214,10.317
6.829,5.697,4.094,10.406
6.981,5.195,6.224,10.407
6.562,5.23,5.328,10.409
6.457,4.854,5.909,10.41
7.067,5.287,5.507,10.497
6.657,5.354,4.909,10.499
6.738,5.07,5.272,10.5
6.676,5.039,5.345,10.502
6.367,5.107,5.247,10.597
6.514,5.009,4.917,10.599
6.49,4.788,4.942,10.6
6.586,4.691,4.983,10.602
6.405,4.916,5.199,10.697
6.471,5.263,5.126,10.699
6.71,5.512,5.158,10.708
6.61,5.672,5.278,10.71
6.638,5.23,5.392,10.809
6.567,5.167,5.167,10.814
6.652,5.038,4.91,10.817
6.462,5.01,5.288,10.82
