vertical_Accel_x,vertical_Accel_y,vertical_Accel_z,accel_time_list
4.461,-7.778,-5.387,0.0
3.917,-2.965,-6.939,0.002
3.37,-6.261,-8.057,0.004
3.143,-7.813,-6.348,0.006
3.783,-4.435,-7.461,0.103
2.774,-6.052,-7.091,0.108
3.096,-6.009,-7.565,0.11
3.265,-5.87,-7.522,0.111
3.164,-6.095,-7.647,0.2
2.923,-5.615,-7.421,0.202
2.836,-5.405,-7.253,0.203
3.155,-5.569,-7.359,0.205
2.974,-5.434,-7.264,0.3
3.124,-5.441,-7.178,0.301
3.236,-5.605,-7.153,0.303
3.124,-5.441,-7.178,0.305
3.498,-5.775,-7.042,0.4
3.55,-5.594,-6.886,0.402
3.653,-5.144,-6.801,0.403
3.52,-5.377,-6.934,0.405
2.893,-5.399,-7.469,0.5
2.759,-5.632,-7.603,0.501
2.582,-5.848,-7.423,0.503
2.508,-5.614,-7.159,0.505
2.664,-5.795,-7.447,0.599
2.702,-5.725,-7.158,0.601
2.615,-5.514,-6.99,0.603
2.74,-5.655,-6.868,0.604
2.086,-5.698,-5.839,0.701
1.441,-5.28,-5.026,0.703
0.656,-5.382,-4.587,0.704
0.147,-5.456,-4.399,0.714
-1.386,-3.997,-3.551,0.802
-1.495,-3.739,-3.03,0.803
-1.79,-3.438,-2.781,0.805
-1.843,-2.589,-2.906,0.807
-2.804,-0.139,-6.204,0.901
-5.006,0.541,-5.806,0.903
-6.171,3.194,-3.871,0.905
-5.818,6.924,-3.118,0.906
-0.298,11.979,1.126,1.002
-0.853,14.081,6.36,1.008
-0.275,14.83,8.543,1.01
-1.536,12.494,4.598,1.012
0.114,8.943,13.771,1.101
-0.616,9.022,16.333,1.107
-1.337,9.876,17.373,1.117
-0.8,10.4,19.4,1.119
-2.726,-7.319,17.248,1.202
-2.619,-3.37,10.863,1.207
-0.796,2.174,9.407,1.208
0.267,5.433,10.333,1.21
1.217,4.06,9.286,1.302
0.513,2.123,10.563,1.304
-0.177,0.785,11.613,1.305
-0.495,-0.463,12.223,1.307
-0.301,-2.786,11.097,1.406
-0.538,-5.07,12.986,1.407
0.459,-4.329,12.578,1.409
0.796,-3.146,12.388,1.411
1.679,4.833,9.092,1.5
1.137,6.738,6.955,1.515
1.616,6.131,7.466,1.517
1.632,5.001,8.613,1.519
-0.461,6.365,7.817,1.601
-0.709,6.252,8.074,1.603
-0.713,5.878,8.061,1.604
-0.548,5.887,7.757,1.606
-0.509,5.752,7.774,1.701
-0.196,5.774,7.813,1.706
-0.304,5.726,7.687,1.708
-0.352,6.413,7.943,1.709
0.352,7.387,5.857,1.802
0.157,7.361,6.67,1.803
0.122,7.67,6.265,1.805
0.148,7.513,6.143,1.806
0.201,7.788,6.407,1.909
0.134,7.592,6.538,1.911
0.141,7.505,6.489,1.913
0.334,7.492,6.338,1.914
0.569,7.371,6.584,2.001
0.576,7.285,6.534,2.003
0.576,7.285,6.534,2.005
0.502,7.175,6.714,2.007
0.204,6.174,7.713,2.101
0.135,6.091,7.804,2.103
0.187,5.978,7.961,2.109
0.117,5.896,8.052,2.111
1.572,5.29,8.422,2.206
1.572,5.29,8.422,2.208
1.477,5.271,8.446,2.21
1.382,5.252,8.47,2.211
1.445,5.181,8.244,2.303
1.445,5.181,8.244,2.305
1.445,5.181,8.244,2.306
1.35,5.238,8.332,2.4
1.381,5.176,8.405,2.404
1.35,5.238,8.332,2.405
1.196,5.495,8.341,2.41
1.102,5.552,8.43,2.412
1.224,5.205,8.219,2.501
1.254,5.143,8.291,2.502
1.254,5.143,8.291,2.504
1.286,5.157,8.429,2.6
1.317,5.171,8.566,2.608
1.192,5.29,8.582,2.609
1.162,5.352,8.51,2.611
1.131,5.414,8.437,2.7
1.103,5.529,7.994,2.707
1.073,5.667,7.987,2.708
1.043,5.729,7.914,2.711
1.108,5.81,7.818,2.8
1.233,5.767,7.867,2.803
1.169,5.686,7.963,2.805
1.104,5.605,8.059,2.806
1.166,5.557,8.269,2.9
1.29,5.438,8.252,2.903
1.226,5.357,8.349,2.904
1.195,5.419,8.276,2.906
1.194,5.343,8.211,3.0
1.163,5.329,8.074,3.009
1.164,5.405,8.139,3.011
1.132,5.39,8.002,3.021
1.163,5.329,8.074,3.099
1.07,5.462,8.228,3.103
1.069,5.386,8.163,3.104
1.039,5.524,8.155,3.106
1.038,5.448,8.09,3.199
1.103,5.529,7.994,3.202
1.008,5.51,8.018,3.208
1.102,5.452,7.93,3.21
0.974,5.443,8.251,3.301
0.974,5.443,8.251,3.305
0.943,5.429,8.114,3.306
0.88,5.5,8.34,3.308
0.883,5.629,8.034,3.399
0.819,5.624,8.195,3.403
0.79,5.762,8.188,3.418
0.882,5.552,7.97,3.42
1.029,6.613,6.991,3.5
0.965,6.804,7.255,3.508
1.053,6.642,7.127,3.51
1.062,6.615,6.618,3.512
0.964,6.609,7.736,3.599
1.087,6.838,7.373,3.603
0.907,7.078,7.573,3.604
1.06,6.92,6.7,3.609
-0.132,7.084,6.176,3.699
-0.435,7.421,6.755,3.703
-0.497,7.263,7.022,3.704
-0.295,7.038,6.636,3.706
-0.477,7.128,7.059,3.799
-0.401,7.112,6.693,3.815
-0.421,7.247,6.656,3.817
-0.295,7.038,6.636,3.819
-0.497,7.263,7.022,3.899
-0.131,7.371,6.684,3.903
-0.152,7.219,6.139,3.904
-0.331,7.071,7.584,3.906
-0.509,7.311,6.935,3.999
-0.309,7.211,6.735,4.002
-0.369,7.329,6.116,4.004
-0.184,7.002,6.715,4.099
-0.277,7.428,6.159,4.101
0.11,6.876,6.372,4.104
-0.934,7.208,7.862,4.106
-0.665,6.779,8.045,4.199
-0.026,7.809,4.72,4.201
-0.788,7.552,7.687,4.22
-0.394,7.426,5.943,4.221
0.84,7.821,5.656,4.303
0.937,7.726,5.135,4.305
1.021,7.858,6.988,4.308
0.207,8.786,6.263,4.31
0.7,7.6,1.2,4.399
0.175,9.225,4.345,4.406
-0.045,9.745,5.849,4.409
0.702,9.498,2.42,4.411
0.137,8.263,4.573,4.499
0.753,6.947,2.929,4.501
0.708,8.192,5.378,4.504
0.453,6.147,0.329,4.506
0.976,8.811,5.14,4.6
0.626,8.406,5.884,4.611
0.904,7.634,4.547,4.614
1.11,8.477,4.806,4.621
0.957,7.856,4.827,4.699
1.534,6.775,3.678,4.701
0.963,8.108,4.698,4.704
-0.029,7.868,4.181,4.706
-0.61,8.223,3.294,4.799
-0.238,8.899,1.686,4.8
0.444,9.353,1.985,4.804
0.514,9.712,3.154,4.805
1.041,10.612,-2.041,4.902
0.165,12.347,-2.065,4.903
0.59,11.402,-2.19,4.907
0.625,11.655,-1.425,4.908
1.378,12.284,-2.178,5.0
2.659,11.588,-1.759,5.005
3.896,12.361,0.204,5.008
6.747,14.971,-4.047,5.01
14.022,9.016,1.078,5.099
3.153,13.429,-8.053,5.101
4.588,18.982,1.212,5.104
5.569,13.092,2.723,5.111
8.038,10.1,3.692,5.202
8.538,9.2,0.992,5.205
8.154,5.1,-1.231,5.213
7.223,2.9,-0.085,5.215
5.07,4.149,-0.423,5.3
5.17,2.449,1.877,5.301
5.874,1.128,6.409,5.305
5.777,0.917,5.274,5.323
4.488,2.587,3.016,5.399
3.124,3.426,1.969,5.401
3.66,4.564,2.622,5.404
4.477,5.714,3.576,5.406
2.249,6.277,4.617,5.499
1.585,4.838,3.972,5.501
0.832,2.37,4.023,5.51
-0.86,2.551,3.687,5.512
-3.121,0.948,3.915,5.598
-6.438,-2.031,4.613,5.604
-12.122,42.178,31.811,5.608
13.848,9.661,-53.806,5.698
-26.814,29.799,-0.39,5.7
-11.933,5.733,-16.133,5.707
30.56,19.383,5.872,5.721
4.32,2.024,7.532,5.798
4.26,-11.328,6.396,5.806
12.5,-2.6,-1.8,5.808
6.02,2.224,-3.368,5.811
13.393,-1.201,1.615,5.899
10.584,1.536,-5.668,5.9
12.602,-0.175,-7.004,5.902
6.759,12.145,1.682,5.909
6.0,17.28,-2.96,5.998
7.38,16.756,2.008,6.0
1.9,10.24,0.82,6.002
2.58,6.796,3.728,6.005
5.077,4.93,3.668,6.099
6.121,3.406,3.038,6.1
8.951,3.732,5.347,6.102
2.826,6.098,1.321,6.113
3.022,7.196,0.673,6.199
5.316,6.806,1.79,6.2
5.492,8.047,2.355,6.202
5.488,5.92,0.833,6.205
9.66,4.604,0.957,6.299
12.755,3.555,2.364,6.3
11.974,3.563,0.477,6.302
10.989,3.411,-3.944,6.305
9.452,7.785,-3.512,6.399
8.245,8.645,-0.964,6.401
7.573,7.373,2.118,6.402
4.894,5.161,1.648,6.406
5.826,5.237,3.123,6.498
7.201,6.39,2.459,6.5
7.311,6.689,1.444,6.509
6.705,5.949,0.293,6.536
7.407,5.529,0.61,6.599
8.087,5.231,1.138,6.6
7.975,5.153,0.935,6.602
9.815,5.348,0.779,6.612
9.877,6.632,-0.147,6.699
9.016,7.438,-1.463,6.701
7.987,6.731,-1.162,6.709
7.346,4.735,1.395,6.713
7.408,4.819,1.969,6.799
7.463,5.474,1.832,6.8
7.147,6.025,1.054,6.803
7.201,6.09,0.359,6.806
7.475,5.753,0.535,6.899
7.606,5.639,0.852,6.908
7.581,5.592,0.687,6.916
7.994,6.261,0.248,6.919
8.336,6.636,0.209,6.999
8.591,6.491,0.273,7.0
8.369,6.013,0.384,7.002
7.81,5.399,0.586,7.005
7.869,5.313,0.784,7.099
7.745,5.345,1.036,7.1
7.726,5.537,0.923,7.102
7.5,5.8,0.7,7.105
7.554,5.965,0.705,7.198
7.568,6.023,0.625,7.2
7.716,6.038,0.537,7.202
7.865,6.054,0.449,7.211
7.985,5.952,0.521,7.303
7.931,5.787,0.516,7.306
7.965,5.654,0.549,7.308
7.965,5.654,0.549,7.398
7.965,5.654,0.549,7.4
7.917,5.728,0.596,7.402
7.769,5.713,0.684,7.403
7.735,5.846,0.651,7.498
7.775,5.953,0.735,7.5
7.688,5.921,0.697,7.502
7.775,5.953,0.735,7.523
7.87,5.803,0.642,7.598
7.856,5.744,0.722,7.6
7.917,5.728,0.596,7.602
7.931,5.787,0.516,7.603
7.931,5.787,0.516,7.674
7.859,5.814,0.398,7.675
7.811,5.889,0.444,7.677
7.749,5.905,0.571,7.678
7.749,5.905,0.571,7.796
7.735,5.846,0.651,7.798
7.688,5.921,0.697,7.8
7.735,5.846,0.651,7.801
7.87,5.803,0.642,7.902
7.87,5.803,0.642,7.904
7.87,5.803,0.642,7.905
7.87,5.803,0.642,7.907
7.811,5.889,0.444,7.998
7.898,5.92,0.483,8.0
7.811,5.889,0.444,8.002
7.764,5.964,0.491,8.003
7.749,5.905,0.571,8.102
7.735,5.846,0.651,8.104
7.735,5.846,0.651,8.106
7.735,5.846,0.651,8.107
7.87,5.803,0.642,8.198
7.884,5.862,0.563,8.2
7.884,5.862,0.563,8.202
7.884,5.862,0.563,8.203
7.884,5.862,0.563,8.298
7.884,5.862,0.563,8.3
7.797,5.83,0.524,8.302
7.749,5.905,0.571,8.303
7.735,5.846,0.651,8.398
7.735,5.846,0.651,8.4
7.735,5.846,0.651,8.401
7.735,5.846,0.651,8.419
7.884,5.862,0.563,8.511
7.884,5.862,0.563,8.513
7.884,5.862,0.563,8.521
7.884,5.862,0.563,8.522
7.884,5.862,0.563,8.598
7.797,5.83,0.524,8.6
7.797,5.83,0.524,8.601
7.749,5.905,0.571,8.608
7.87,5.803,0.642,8.698
7.783,5.772,0.604,8.7
7.783,5.772,0.604,8.706
7.783,5.772,0.604,8.707
7.749,5.905,0.571,8.8
7.797,5.83,0.524,8.808
7.884,5.862,0.563,8.818
7.884,5.862,0.563,8.819
7.884,5.862,0.563,8.898
7.797,5.83,0.524,8.9
7.749,5.905,0.571,8.901
7.797,5.83,0.524,8.903
7.797,5.83,0.524,8.997
7.749,5.905,0.571,9.003
7.749,5.905,0.571,9.005
7.797,5.83,0.524,9.007
7.884,5.862,0.563,9.107
7.884,5.862,0.563,9.109
7.884,5.862,0.563,9.11
7.884,5.862,0.563,9.112
7.797,5.83,0.524,9.204
7.797,5.83,0.524,9.214
7.749,5.905,0.571,9.216
7.797,5.83,0.524,9.217
7.797,5.83,0.524,9.303
7.797,5.83,0.524,9.305
7.749,5.905,0.571,9.306
7.797,5.83,0.524,9.308
7.884,5.862,0.563,9.4
7.884,5.862,0.563,9.401
7.884,5.862,0.563,9.403
7.797,5.83,0.524,9.405
7.797,5.83,0.524,9.502
7.797,5.83,0.524,9.505
7.749,5.905,0.571,9.507
7.783,5.772,0.604,9.508
7.884,5.862,0.563,9.612
7.797,5.83,0.524,9.614
7.797,5.83,0.524,9.616
7.797,5.83,0.524,9.617
7.884,5.862,0.563,9.702
7.797,5.83,0.524,9.704
7.797,5.83,0.524,9.707
7.797,5.83,0.524,9.709
7.797,5.83,0.524,9.799
7.797,5.83,0.524,9.8
7.797,5.83,0.524,9.802
7.797,5.83,0.524,9.804
7.856,5.744,0.722,9.901
7.884,5.862,0.563,9.903
7.839,6.006,0.285,9.904
7.811,5.889,0.444,9.906
7.865,6.054,0.449,10.0
8.326,5.837,0.623,10.001
9.141,5.986,1.002,10.003
10.44,5.996,2.743,10.004
7.395,6.251,-0.993,10.106
7.452,6.385,-2.012,10.107
5.177,5.632,-4.847,10.109
7.362,4.384,-5.126,10.111
6.218,6.455,-5.682,10.204
6.355,6.964,-4.945,10.206
7.0,7.5,-2.0,10.207
6.118,7.055,-2.982,10.209
1.687,5.667,-8.527,10.299
3.671,3.414,-9.157,10.301
1.644,4.838,-8.112,10.303
1.834,3.743,-8.231,10.312
2.249,1.31,-8.249,10.399
3.21,1.002,-7.31,10.401
3.367,0.233,-7.467,10.403
3.088,0.718,-8.588,10.404
1.123,-0.615,-10.0,10.5
-4.408,-6.062,-10.1,10.502
-2.838,-8.008,-7.6,10.504
-2.215,-11.323,-4.7,10.505
-6.058,-0.81,-15.879,10.603
-5.801,0.505,-12.25,10.605
-2.372,-6.338,-8.036,10.606
-2.953,-4.065,-9.6,10.698
0.292,1.079,-10.1,10.701
-0.17,-3.197,-10.0,10.707
-0.989,-5.709,-8.8,10.719
2.315,-6.077,-7.2,10.798
-1.015,-0.423,-9.7,10.805
-1.108,-0.462,-8.3,10.806
0.246,-0.331,-8.5,10.808
-0.249,-3.315,-8.3,10.898
0.475,-2.352,-10.9,10.901
-0.212,-1.981,-10.8,10.911
0.239,-1.686,-10.1,10.912
0.524,-2.118,-9.118,11.009
1.045,-2.825,-8.925,11.017
-0.357,-3.416,-9.116,11.018
-0.145,-2.975,-9.575,11.02
-0.057,-3.651,-9.226,11.107
-0.538,-4.388,-9.144,11.116
-0.386,-3.777,-8.989,11.128
0.205,-2.119,-8.81,11.129
1.119,-2.896,-9.396,11.198
1.278,-3.144,-9.244,11.201
0.785,-3.063,-8.463,11.203
0.107,-4.119,-8.819,11.208
-0.161,-3.796,-9.696,11.302
0.52,-0.998,-9.198,11.305
0.159,-2.194,-9.294,11.307
-3.831,-2.843,-6.943,11.309
5.594,-2.571,-11.071,11.397
0.884,-0.722,-9.222,11.4
1.371,-1.853,-9.453,11.402
-1.545,-5.075,-8.775,11.404
3.376,-1.782,-10.682,11.498
2.251,-0.755,-9.255,11.51
1.482,-1.312,-9.012,11.511
1.733,-0.967,-9.567,11.519
-0.331,-1.393,-9.8,11.598
-0.82,-2.002,-9.5,11.602
-0.505,-2.55,-9.7,11.604
-0.153,-1.765,-9.7,11.606
-0.037,-1.334,-9.7,11.697
-0.291,-1.589,-9.7,11.706
-0.212,-1.981,-9.6,11.708
-0.192,-2.079,-9.5,11.709
