vertical_Accel_x,vertical_Accel_y,vertical_Accel_z,accel_time_list
-0.8,-4.269,-8.946,0.0
-0.7,-4.323,-8.815,0.002
-0.6,-4.177,-8.985,0.004
-0.5,-4.108,-9.338,0.009
-0.7,-2.8,-8.8,0.126
-0.3,-3.508,-8.938,0.127
-0.7,-3.6,-8.9,0.129
-0.2,-4.308,-9.038,0.13
-0.1,-3.677,-9.085,0.229
-0.1,-3.415,-8.977,0.231
-0.4,-3.654,-8.769,0.232
-0.5,-4.062,-8.708,0.234
-0.9,-3.654,-8.769,0.236
-0.7,-3.692,-8.862,0.237
-0.7,-3.654,-8.769,0.239
-0.8,-3.538,-8.492,0.33
-0.6,-3.5,-8.4,0.332
-1.1,-3.423,-8.215,0.334
-0.8,-4.292,-7.962,0.335
-1.4,-4.785,-7.323,0.347
-0.9,-3.5,-7.1,0.406
-1.5,-4.177,-7.685,0.407
-1.5,-4.715,-7.677,0.409
-2.2,-5.4,-7.5,0.411
-2.4,-5.454,-7.369,0.412
-1.715,-1.577,-8.004,0.524
-1.462,1.743,-7.291,0.526
-0.592,4.989,-7.398,0.527
2.191,6.474,-6.888,0.628
2.616,5.927,-6.181,0.629
2.169,5.271,-6.08,0.631
1.995,5.924,-6.573,0.632
2.906,7.388,-6.498,0.634
3.393,7.702,-4.434,0.64
3.608,7.365,-2.614,0.727
3.125,7.502,-2.419,0.729
3.642,7.139,-2.524,0.731
2.589,6.811,-3.056,0.742
2.213,7.305,-2.898,0.752
4.838,8.223,0.311,0.809
5.336,9.328,1.149,0.811
5.157,9.586,2.977,0.813
4.299,10.225,2.534,0.814
3.619,11.02,3.147,0.816
4.121,9.894,7.26,0.925
3.934,9.23,6.755,0.926
3.179,9.506,5.64,0.928
3.043,9.687,4.719,0.93
3.026,9.972,4.191,1.028
2.728,10.562,4.557,1.029
2.545,10.577,4.685,1.031
2.16,10.502,4.847,1.038
2.13,10.451,5.123,1.04
2.087,10.464,4.904,1.041
1.941,9.763,6.123,1.126
1.873,9.958,5.418,1.128
1.737,9.711,4.711,1.134
1.575,9.284,4.424,1.144
1.598,8.874,4.394,1.146
1.742,8.626,4.226,1.227
1.744,8.853,4.133,1.229
1.382,8.726,4.246,1.231
1.79,8.849,3.851,1.236
1.753,8.735,4.065,1.238
1.416,8.447,4.747,1.326
1.327,8.642,4.682,1.328
1.139,8.537,4.317,1.329
0.988,8.605,4.265,1.331
1.051,8.732,4.252,1.333
1.141,8.763,4.223,1.428
0.905,9.116,4.216,1.434
0.997,9.011,4.391,1.436
1.119,9.037,4.457,1.437
1.149,9.168,4.348,1.439
1.323,9.959,2.043,1.527
1.407,9.666,1.826,1.528
1.283,9.726,1.651,1.538
1.137,9.89,1.696,1.54
1.37,10.176,1.63,1.541
1.529,10.443,1.837,1.625
1.7,10.6,1.6,1.629
1.617,10.574,1.649,1.631
1.726,10.401,1.74,1.633
2.11,10.108,1.823,1.635
2.219,9.935,1.914,1.726
2.319,9.435,1.614,1.728
2.315,9.012,1.585,1.729
2.461,8.848,1.539,1.738
2.636,8.909,1.664,1.74
2.324,9.206,-0.689,1.826
2.236,9.208,-0.483,1.828
2.419,8.95,-0.499,1.829
2.23,8.861,-0.579,1.831
2.054,9.066,-0.267,1.837
2.097,9.322,-0.155,1.926
2.192,9.667,-0.265,1.936
2.359,9.829,-0.342,1.937
2.417,9.865,-0.269,1.939
2.374,9.409,-0.281,1.947
2.367,8.862,-0.277,2.026
2.564,8.584,-0.432,2.028
2.616,8.473,-0.554,2.029
2.391,8.475,-0.65,2.031
2.2,8.7,-0.1,2.039
2.308,8.975,-0.045,2.128
2.453,9.153,-0.129,2.13
2.496,9.063,-0.127,2.132
2.71,8.943,-0.131,2.138
2.831,8.998,-0.28,2.139
2.661,9.027,-0.275,2.23
2.716,9.049,-0.49,2.231
2.655,9.022,-0.416,2.233
2.808,8.875,-0.345,2.235
2.747,8.847,-0.271,2.236
2.161,9.104,1.267,2.325
1.844,9.294,1.058,2.327
1.598,9.621,1.01,2.328
1.446,9.772,0.948,2.33
1.08,10.132,1.111,2.427
0.406,10.876,1.515,2.429
-0.579,11.907,1.934,2.431
-0.832,12.219,2.027,2.433
-1.116,11.929,2.336,2.434
-0.217,10.985,2.872,2.526
-0.291,10.857,3.564,2.532
-0.911,9.421,4.541,2.534
-1.165,8.33,3.803,2.535
-1.513,7.725,2.757,2.537
-1.474,7.785,0.615,2.626
-1.722,8.256,0.244,2.627
-1.967,9.067,1.033,2.631
-2.1,9.9,2.1,2.638
-2.174,10.785,2.815,2.64
-0.968,10.895,4.095,2.701
-0.163,10.411,4.011,2.702
0.185,9.816,3.756,2.704
-0.974,9.049,4.662,2.71
-0.174,8.442,5.726,2.711
-0.707,7.864,5.953,2.824
-0.084,7.305,6.216,2.826
2.043,6.54,6.274,2.828
2.347,6.317,5.889,2.829
2.451,6.194,5.704,2.927
2.606,6.366,5.623,2.929
2.664,6.915,6.157,2.93
2.813,6.921,6.453,2.932
3.087,7.079,6.447,2.934
3.017,7.498,5.968,2.935
3.538,6.242,6.567,3.026
3.726,6.191,6.28,3.028
3.754,6.257,6.775,3.03
4.11,6.176,7.372,3.031
4.367,6.896,7.969,3.041
4.367,9.093,6.205,3.125
4.416,9.309,5.843,3.127
4.414,10.33,5.927,3.128
4.342,11.49,6.582,3.13
4.648,12.027,7.33,3.132
4.336,10.785,8.043,3.226
4.217,9.998,6.768,3.227
3.808,9.455,5.33,3.229
2.757,8.46,4.426,3.235
2.145,8.028,5.181,3.237
2.001,6.996,8.736,3.326
2.124,7.605,9.355,3.327
-1.313,11.316,7.378,3.329
-0.895,11.655,6.524,3.331
-0.943,11.583,6.636,3.332
-1.58,10.622,6.995,3.401
-1.355,9.999,7.314,3.402
-1.354,9.49,6.539,3.404
-1.372,8.95,6.093,3.414
-1.212,8.307,6.103,3.415
-0.88,8.5,4.66,3.524
-0.692,7.72,4.144,3.525
0.136,6.94,3.648,3.531
0.197,6.476,3.997,3.628
-0.237,6.268,3.863,3.63
0.124,5.694,4.624,3.631
1.301,5.541,5.001,3.633
1.631,5.684,4.531,3.635
1.532,5.825,4.632,3.636
1.703,5.824,4.603,3.638
1.976,5.58,4.532,3.725
1.848,5.64,4.536,3.727
1.784,5.52,4.288,3.729
1.848,5.64,4.536,3.73
1.976,6.08,4.532,3.732
2.109,6.673,4.209,3.825
1.691,7.027,4.491,3.827
1.367,7.733,4.967,3.837
1.186,8.72,5.586,3.845
1.036,9.291,5.036,3.847
0.791,7.847,5.569,3.925
1.364,7.229,5.396,3.926
2.473,7.422,5.547,3.928
1.882,7.515,5.398,3.93
1.251,8.024,6.516,4.025
0.912,9.394,6.996,4.03
1.347,10.927,6.951,4.032
1.28,10.91,5.073,4.034
-0.361,10.031,4.82,4.035
0.859,9.365,4.985,4.128
1.678,8.896,5.655,4.129
1.26,8.856,5.81,4.131
2.058,8.874,6.16,4.133
1.815,8.366,5.371,4.134
1.691,7.496,6.611,4.226
1.609,6.904,7.189,4.227
2.289,7.144,7.289,4.251
2.367,7.433,6.367,4.253
1.933,7.467,5.733,4.254
2.567,5.633,7.333,4.325
2.737,5.311,7.689,4.327
2.495,5.084,7.516,4.329
2.211,4.532,7.768,4.33
2.323,4.335,8.098,4.332
2.357,3.514,8.829,4.426
2.51,3.999,9.578,4.432
2.629,4.257,10.414,4.434
2.652,4.505,10.61,4.435
2.414,4.589,10.737,4.437
3.604,6.751,9.729,4.529
3.844,7.768,10.61,4.531
3.698,10.311,9.892,4.533
4.615,10.209,8.96,4.536
4.115,9.409,6.56,4.539
3.219,8.387,5.275,4.625
3.181,6.813,5.325,4.635
3.066,5.804,5.064,4.636
1.813,6.221,5.653,4.638
1.196,6.223,7.685,4.645
1.772,5.911,10.202,4.725
2.009,6.964,11.121,4.726
2.038,7.25,11.254,4.731
1.803,7.588,10.807,4.733
1.418,6.645,10.378,4.738
0.526,7.518,8.856,4.828
0.507,7.062,8.03,4.83
0.063,6.988,7.149,4.833
0.169,6.635,6.796,4.835
0.572,6.208,6.72,4.837
1.431,6.62,5.739,4.925
1.68,6.453,5.741,4.927
2.086,6.157,5.429,4.929
1.857,6.171,5.086,4.93
2.306,5.704,5.088,4.932
2.664,5.691,4.536,5.025
2.373,5.518,4.227,5.033
2.02,5.64,4.2,5.035
2.213,5.898,4.327,5.036
2.124,6.411,4.836,5.038
1.964,6.791,4.936,5.125
2.025,6.996,5.055,5.127
2.124,6.911,5.236,5.128
2.469,7.147,5.491,5.13
2.444,7.651,6.236,5.14
2.2,8.4,6.5,5.237
2.087,8.702,6.373,5.238
2.113,8.198,5.627,5.24
1.982,7.645,5.218,5.251
2.821,6.221,5.351,5.255
2.716,5.778,5.167,5.325
2.529,6.586,6.143,5.33
2.367,8.145,6.665,5.331
2.614,9.643,6.271,5.334
1.704,10.069,5.292,5.35
-0.821,9.787,5.08,5.426
-0.373,8.759,5.768,5.428
-0.091,8.52,5.823,5.429
0.847,8.381,5.863,5.431
0.613,7.884,5.622,5.432
2.25,6.198,7.018,5.525
2.358,5.866,7.403,5.527
2.732,6.173,7.641,5.534
3.34,6.342,7.226,5.536
3.031,6.277,7.205,5.537
3.251,5.694,7.653,5.624
3.52,5.721,7.913,5.631
4.08,6.179,7.787,5.632
3.852,6.19,7.289,5.634
3.517,4.396,7.752,5.725
3.817,3.596,8.352,5.727
4.335,3.891,8.904,5.728
4.491,4.652,9.274,5.731
4.496,5.226,9.687,5.753
4.575,6.197,9.627,5.825
4.485,6.786,9.392,5.827
4.769,7.971,9.784,5.832
5.041,9.205,10.089,5.833
5.094,9.574,10.057,5.835
4.147,9.717,7.889,5.925
3.442,7.951,7.366,5.927
2.755,6.772,6.519,5.929
2.268,6.292,6.672,5.93
1.934,6.896,7.436,5.932
1.89,6.84,8.944,6.03
2.033,7.569,9.376,6.031
2.023,7.609,8.92,6.033
2.301,7.796,8.536,6.035
2.186,7.555,8.101,6.036
-0.092,9.029,6.598,6.125
-0.408,9.071,6.402,6.127
-0.363,8.77,6.316,6.132
-0.718,8.46,6.054,6.143
-0.659,8.035,5.715,6.145
-0.616,8.36,4.212,6.225
-0.568,7.88,3.676,6.227
-0.532,7.12,4.024,6.229
-0.224,6.74,4.168,6.23
0.116,6.64,4.288,6.232
0.472,6.68,4.396,6.324
0.52,6.6,4.36,6.326
0.54,6.8,4.22,6.328
0.608,6.92,4.044,6.329
0.736,7.04,3.948,6.331
0.645,6.964,4.545,6.424
0.696,7.034,4.496,6.426
0.845,6.964,4.345,6.427
1.136,6.891,4.336,6.429
1.379,7.03,4.379,6.431
0.806,7.948,5.106,6.525
-0.078,9.011,5.722,6.526
-0.742,9.161,5.258,6.536
-0.459,8.598,4.541,6.538
0.81,7.814,4.11,6.549
0.968,7.12,3.524,6.625
0.128,7.72,4.404,6.626
0.704,9.86,5.972,6.628
0.612,10.68,5.416,6.63
-0.988,10.868,5.66,6.632
-0.11,10.489,4.852,6.725
0.143,9.617,4.664,6.726
0.161,9.348,5.035,6.728
0.744,9.708,4.889,6.73
0.587,9.916,4.778,6.731
1.153,9.298,4.825,6.825
1.383,8.911,5.853,6.827
2.247,9.002,5.975,6.829
2.006,8.796,4.649,6.83
1.847,8.602,5.175,6.832
2.621,6.874,6.721,6.925
2.616,7.205,6.716,6.936
2.616,7.205,6.716,6.937
2.797,6.999,6.837,6.939
2.649,6.783,6.689,6.941
1.816,7.257,5.996,7.025
1.571,7.258,5.982,7.03
1.444,7.508,6.089,7.031
1.456,7.892,6.611,7.033
1.432,8.515,7.092,7.035
1.511,10.579,4.759,7.125
0.883,10.635,4.649,7.126
-0.523,10.247,4.298,7.128
-1.449,11.497,4.313,7.13
-1.006,12.512,5.75,7.131
-0.214,13.227,6.316,7.224
-0.443,13.485,6.663,7.226
-0.817,12.033,6.69,7.227
-0.972,9.244,5.611,7.233
-1.115,7.529,4.374,7.324
-0.811,7.321,4.441,7.34
-0.186,7.673,5.684,7.342
0.231,8.638,6.336,7.343
0.125,9.35,6.485,7.345
-0.277,10.108,5.157,7.424
-0.734,10.589,5.015,7.426
-1.247,10.751,5.032,7.431
-3.385,10.668,4.748,7.432
-3.699,10.285,4.63,7.434
-3.453,10.267,2.993,7.499
-3.422,9.578,2.489,7.501
-3.064,9.156,1.938,7.502
-3.204,8.715,1.093,7.512
-3.007,7.926,1.264,7.513
-2.732,7.327,1.694,7.623
-1.997,7.189,1.73,7.625
-1.503,7.511,1.77,7.626
-1.246,7.083,1.545,7.628
-1.109,6.605,0.846,7.726
-0.895,6.786,0.952,7.739
-1.208,7.082,0.796,7.743
-1.499,7.677,0.65,7.745
-1.632,8.429,0.484,7.746
-1.886,8.881,0.507,7.748
-3.449,8.453,0.434,7.824
-3.609,8.774,0.328,7.834
-4.16,9.921,0.294,7.836
-5.343,11.272,0.038,7.838
-5.334,11.098,-0.689,7.84
-3.856,10.192,-1.12,7.924
-2.62,8.34,-1.3,7.93
-2.176,7.432,-1.02,7.932
-2.496,8.172,-0.72,7.934
-3.696,9.572,-0.42,7.935
-4.093,10.994,-1.689,8.024
-4.228,11.567,-1.873,8.025
-3.646,11.853,-3.315,8.027
-3.356,9.834,-3.946,8.028
-3.732,8.942,-3.893,8.038
-1.9,9.8,-2.1,8.124
-1.457,9.876,-1.152,8.126
-1.732,10.147,-1.257,8.132
-1.647,9.898,-1.361,8.134
-1.699,9.785,-1.517,8.135
-1.22,9.859,-0.753,8.224
-1.178,9.445,-0.882,8.228
-0.855,9.39,-1.063,8.23
-0.529,9.243,-0.714,8.232
-0.392,9.216,-0.739,8.237
-0.188,8.637,-3.205,8.324
0.238,8.953,-3.299,8.327
0.784,8.977,-3.829,8.328
0.234,8.588,-4.225,8.33
-0.423,9.448,-3.881,8.332
-0.517,10.156,-3.738,8.424
-0.719,10.813,-4.255,8.425
-0.954,11.425,-4.43,8.427
-1.296,11.586,-4.266,8.438
-2.265,12.41,-4.716,8.44
-3.702,13.587,-5.927,8.524
-3.505,14.462,-6.382,8.526
-3.988,10.841,-9.041,8.531
-3.573,9.063,-7.196,8.533
-3.543,8.116,-5.449,8.534
-3.741,7.306,-4.906,8.624
-4.567,7.433,-5.367,8.625
-5.224,8.218,-5.818,8.627
-5.592,8.961,-6.427,8.633
-5.582,9.112,-6.512,8.635
-6.27,8.257,-6.439,8.724
-5.965,7.922,-6.13,8.727
-5.704,7.335,-6.409,8.728
-5.757,6.952,-6.513,8.739
-5.965,6.222,-6.03,8.741
-6.527,4.693,-5.878,8.823
-6.445,4.635,-5.104,8.825
-6.309,4.591,-4.773,8.837
-6.1,4.34,-4.62,8.839
-5.588,3.698,-5.106,8.924
-5.032,3.997,-4.959,8.925
-4.652,4.623,-5.018,8.927
-4.93,4.672,-4.113,8.929
-4.26,4.543,-3.926,8.93
-2.393,5.413,-4.067,9.024
-2.3,5.4,-4.7,9.025
-2.384,5.031,-5.289,9.027
-2.367,4.767,-5.533,9.029
-2.709,4.482,-5.578,9.035
-2.4,2.0,-7.5,9.129
-1.895,1.112,-8.245,9.131
-1.774,0.598,-8.946,9.132
-2.942,0.627,-9.398,9.134
-4.726,1.562,-10.434,9.136
-5.543,4.274,-11.178,9.224
-3.813,4.052,-11.643,9.225
-1.535,3.039,-10.683,9.235
-1.296,2.583,-8.952,9.237
-2.157,2.826,-8.122,9.238
-2.669,2.367,-9.794,9.327
-4.073,2.418,-11.235,9.329
-4.569,1.667,-12.194,9.331
-4.284,0.596,-12.337,9.332
-3.325,1.6,-11.144,9.336
-1.33,-1.115,-10.704,9.424
-1.085,-0.893,-9.948,9.425
-1.1,-0.7,-10.0,9.427
-1.096,0.252,-9.937,9.429
-0.948,0.426,-9.719,9.43
-1.442,1.995,-9.623,9.524
-1.271,1.948,-9.362,9.526
-1.105,1.844,-9.68,9.529
-0.834,1.896,-9.619,9.531
0.398,2.062,-9.489,9.532
0.269,2.271,-9.244,9.624
0.158,2.882,-9.089,9.644
0.338,3.142,-8.889,9.645
0.096,3.224,-8.678,9.647
-0.04,3.22,-8.5,9.649
-0.424,3.584,-9.178,9.723
-0.756,3.656,-9.822,9.725
-0.918,3.798,-11.011,9.726
-1.42,3.06,-11.3,9.728
-3.062,1.842,-11.289,9.73
-4.507,2.787,-11.467,9.825
-4.124,4.184,-12.378,9.827
-4.064,3.104,-12.978,9.829
-4.98,2.64,-12.0,9.83
-5.56,3.58,-10.0,9.832
-4.347,5.3,-8.004,9.923
-3.37,3.5,-7.369,9.925
-3.155,3.1,-6.472,9.927
-3.6,3.9,-6.7,9.928
-3.727,4.5,-7.417,9.93
-2.109,3.151,-10.488,10.025
-2.274,3.362,-11.201,10.028
-1.176,2.296,-10.032,10.029
-1.587,3.781,-11.25,10.031
-0.995,3.416,-11.173,10.036
-1.092,0.931,-11.677,10.132
-0.777,0.892,-11.231,10.133
-0.577,0.392,-10.631,10.135
-2.189,-0.004,-9.517,10.137
-2.004,0.482,-9.273,10.138
-1.601,1.32,-9.118,10.224
-1.509,1.363,-8.946,10.226
-1.155,1.142,-8.732,10.227
-0.449,2.219,-8.498,10.229
-0.302,2.062,-8.004,10.231
-0.191,1.009,-7.773,10.324
0.101,0.934,-7.575,10.326
0.259,0.592,-7.835,10.327
-0.126,0.507,-7.957,10.333
-0.4,0.8,-8.2,10.343
-0.722,1.144,-8.656,10.424
-0.885,1.015,-9.121,10.426
-0.934,1.132,-9.459,10.427
-1.124,1.076,-9.806,10.429
-1.555,1.145,-10.964,10.43
-3.239,-0.337,-12.998,10.523
-3.292,-0.645,-13.953,10.525
-1.8,-0.4,-12.0,10.527
-0.435,0.141,-9.224,10.528
-0.648,-0.588,-7.785,10.628
-0.847,-1.046,-7.775,10.63
-1.277,-1.647,-8.868,10.632
-1.964,-1.24,-9.83,10.633
-2.455,-1.862,-11.119,10.635
-2.352,-3.302,-10.757,10.725
-2.235,-3.713,-10.119,10.732
-1.432,-3.209,-9.705,10.738
-0.974,-3.199,-9.422,10.739
-0.797,-2.496,-9.487,10.749
-0.997,-1.696,-9.687,10.824
-1.14,-1.654,-9.774,10.829
-1.402,-1.736,-9.842,10.831
-1.011,-1.648,-9.982,10.833
-0.625,-2.133,-9.707,10.834
1.263,-2.69,-9.205,10.925
1.378,-2.482,-9.146,10.926
1.494,-2.415,-9.101,10.928
1.632,-2.565,-9.01,10.93
2.839,-2.855,-8.451,10.938
2.886,-3.143,-8.329,11.025
2.88,-3.318,-8.984,11.027
2.839,-3.555,-9.851,11.028
2.735,-3.739,-10.488,11.034
2.771,-3.786,-10.857,11.036
2.888,-3.851,-10.81,11.124
2.931,-3.622,-11.024,11.125
2.629,-3.514,-12.043,11.127
2.416,-3.465,-13.153,11.148
2.435,-3.439,-13.588,11.15
0.491,-6.226,-11.952,11.225
0.387,-5.339,-10.478,11.227
0.039,-4.583,-9.065,11.228
-0.378,-4.435,-8.37,11.233
-0.739,-4.617,-8.835,11.235
-0.978,-6.444,-8.944,11.327
-0.82,-6.805,-9.269,11.329
-0.854,-6.838,-9.402,11.331
-0.886,-6.646,-9.292,11.332
-1.076,-6.594,-9.258,11.334
-1.437,-7.885,-8.237,11.425
-1.559,-7.896,-8.359,11.426
-1.837,-7.785,-8.337,11.429
-2.059,-7.896,-7.859,11.43
-2.048,-8.141,-7.848,11.432
-3.698,-8.927,-5.933,11.524
-3.52,-8.5,-5.64,11.525
-3.14,-7.8,-4.98,11.536
-2.918,-6.727,-4.973,11.537
-2.158,-6.227,-5.653,11.539
-1.352,-5.67,-6.098,11.624
-1.41,-5.282,-5.592,11.626
-1.257,-4.631,-6.134,11.627
-1.062,-5.012,-6.61,11.629
-1.176,-5.615,-6.259,11.631
-0.853,-6.13,-5.538,11.724
-1.107,-5.953,-4.952,11.726
-0.885,-5.902,-5.621,11.728
-0.338,-6.233,-5.66,11.734
-1.149,-7.543,-4.816,11.739
-1.89,-7.931,-4.957,11.824
-2.251,-7.357,-4.784,11.826
-1.596,-6.973,-4.463,11.829
-0.341,-6.488,-3.741,11.831
0.337,-6.539,-3.196,11.833
0.661,-6.67,-3.657,11.924
-0.843,-8.222,-4.174,11.935
-2.222,-9.861,-5.087,11.936
-2.487,-11.343,-5.048,11.938
-2.113,-11.857,-3.552,11.94
0.408,-11.762,-0.7,12.023
0.638,-11.208,-1.0,12.025
0.385,-10.777,-1.8,12.027
0.238,-10.608,-2.2,12.028
0.262,-10.292,-2.9,12.03
2.21,-8.802,-5.49,12.125
2.369,-9.014,-5.631,12.127
3.805,-9.345,-3.949,12.129
4.299,-9.311,-3.79,12.132
4.9,-8.8,-2.9,12.134
5.1,-8.9,-3.4,12.223
6.7,-8.9,-3.9,12.228
6.6,-8.8,-2.2,12.23
6.1,-9.0,-1.8,12.232
5.6,-8.0,-2.7,12.323
5.3,-7.6,-3.2,12.334
5.2,-8.0,-3.7,12.337
5.4,-8.3,-4.5,12.339
5.6,-8.7,-5.0,12.341
5.6,-9.3,-5.2,12.427
5.5,-9.4,-5.0,12.428
5.4,-9.7,-4.8,12.43
5.5,-10.8,-5.0,12.432
5.7,-11.6,-5.0,12.433
5.5,-11.7,-5.0,12.529
5.1,-10.9,-4.6,12.531
4.2,-9.8,-4.1,12.533
3.4,-9.7,-4.1,12.535
3.2,-10.5,-4.4,12.536
2.78,-12.098,-3.482,12.623
3.246,-12.441,-3.405,12.625
3.009,-12.71,-3.299,12.626
2.353,-12.368,-2.485,12.628
2.517,-12.129,-1.888,12.63
0.427,-12.362,1.335,12.725
0.251,-11.732,1.381,12.728
-0.106,-11.116,0.723,12.73
-0.181,-10.451,0.232,12.731
-0.299,-9.764,0.163,12.733
0.477,-9.041,-1.757,12.823
0.333,-8.367,-1.967,12.824
0.324,-7.839,-2.076,12.826
0.377,-7.641,-1.857,12.828
0.414,-7.331,-1.553,12.829
-0.411,-6.927,-1.461,12.923
-0.243,-6.446,-1.487,12.925
-0.394,-6.237,-1.67,12.926
-0.351,-6.591,-1.783,12.932
-0.242,-6.985,-1.832,12.934
-0.317,-7.29,-1.791,13.022
-0.227,-7.556,-1.896,13.024
0.382,-7.311,-1.901,13.026
1.146,-7.372,-1.948,13.027
1.481,-8.572,-1.956,13.039
1.957,-9.613,-2.781,13.123
1.653,-10.434,-2.249,13.125
1.636,-10.719,-1.721,13.127
1.964,-9.881,-0.879,13.128
1.226,-9.872,-0.291,13.13
1.0,-10.7,-2.2,13.223
1.233,-11.567,-3.333,13.225
1.367,-12.733,-4.267,13.226
1.022,-13.544,-4.556,13.228
1.82,-12.5,-5.26,13.23
2.586,-11.969,-3.731,13.323
2.914,-11.431,-3.269,13.325
2.992,-10.939,-3.161,13.332
2.763,-10.186,-2.814,13.334
2.629,-9.453,-2.447,13.335
3.8,-8.3,-3.2,13.423
3.8,-8.0,-3.3,13.425
3.8,-7.9,-3.5,13.431
3.8,-7.8,-4.0,13.442
3.9,-7.9,-4.4,13.445
4.1,-8.1,-4.5,13.523
4.3,-8.1,-4.5,13.525
4.3,-7.9,-4.1,13.526
4.1,-7.7,-4.0,13.531
4.2,-8.2,-4.2,13.533
4.5,-8.9,-4.6,13.623
5.1,-9.5,-4.8,13.625
5.4,-10.2,-4.4,13.627
5.3,-10.3,-4.1,13.628
5.3,-10.2,-3.7,13.63
5.8,-11.5,-4.1,13.723
7.6,-12.8,-4.2,13.729
6.6,-12.5,-3.4,13.731
4.8,-10.7,-4.1,13.733
3.4,-8.5,-4.7,13.738
2.187,-7.732,-5.181,13.822
1.788,-8.321,-5.891,13.824
2.184,-9.265,-6.852,13.838
2.822,-10.38,-7.398,13.84
2.439,-12.104,-5.696,13.923
2.263,-12.286,-5.014,13.925
1.608,-11.961,-4.539,13.926
1.204,-11.58,-4.22,13.931
0.953,-11.335,-3.765,13.933
0.266,-10.479,-4.399,14.023
0.223,-9.989,-4.069,14.025
0.119,-9.237,-3.957,14.026
0.439,-8.737,-3.717,14.028
0.107,-8.481,-2.519,14.033
1.235,-8.128,-1.531,14.123
1.578,-7.722,-1.889,14.125
1.626,-6.901,-2.14,14.126
1.823,-6.659,-2.543,14.128
1.826,-6.372,-2.891,14.13
1.221,-6.707,-2.234,14.223
1.306,-6.876,-2.115,14.224
1.216,-6.971,-1.764,14.237
1.141,-7.275,-1.723,14.239
1.024,-7.226,-1.569,14.241
-0.012,-7.616,-1.08,14.323
0.5,-7.5,-1.2,14.324
0.244,-7.808,-1.34,14.326
-0.956,-9.408,-1.84,14.328
-1.368,-10.724,-1.62,14.329
0.759,-10.186,-1.566,14.423
1.06,-8.553,-2.298,14.425
0.821,-7.84,-2.606,14.426
-0.085,-8.638,-2.874,14.428
-0.913,-10.496,-3.836,14.43
0.074,-12.183,-2.305,14.523
0.414,-11.532,-0.643,14.524
-0.571,-10.838,0.117,14.53
-0.812,-9.915,-0.748,14.533
-0.424,-9.93,-1.797,14.534
0.947,-10.521,-1.013,14.623
1.349,-10.574,-0.938,14.644
0.981,-10.372,-1.355,14.646
1.274,-10.66,-1.657,14.648
2.098,-10.747,-0.675,14.649
3.682,-9.676,-0.382,14.722
3.027,-9.425,-0.827,14.724
2.867,-9.333,-2.067,14.729
3.135,-9.547,-2.335,14.731
3.757,-9.531,-2.657,14.733
3.624,-9.165,-2.524,14.823
3.463,-8.973,-2.763,14.824
3.337,-9.127,-3.137,14.826
3.706,-9.841,-3.206,14.828
4.002,-10.38,-3.002,14.829
6.1,-10.231,-1.154,14.923
6.1,-10.4,-1.3,14.93
5.8,-10.415,-1.077,14.931
5.4,-11.246,-0.731,14.933
5.6,-13.231,-0.554,14.934
6.3,-14.638,-0.292,15.023
6.2,-13.892,-0.062,15.024
5.1,-11.885,0.077,15.031
3.7,-10.492,0.038,15.033
2.8,-10.438,-0.092,15.035
1.655,-10.668,3.481,15.123
1.895,-11.129,3.763,15.124
1.981,-11.417,3.752,15.126
1.887,-11.476,3.664,15.128
1.802,-11.188,3.675,15.129
0.149,-10.19,5.484,15.223
0.071,-9.906,5.429,15.224
-0.343,-9.769,4.91,15.226
-0.739,-9.908,4.573,15.228
-1.182,-9.676,4.582,15.229
-2.488,-9.559,3.704,15.323
-2.417,-9.214,3.83,15.331
-2.231,-8.944,3.78,15.332
-1.686,-8.77,3.551,15.334
-1.78,-8.402,3.389,15.345
-2.081,-7.483,4.305,15.423
-1.48,-7.252,4.23,15.426
-1.45,-7.165,4.337,15.428
-1.043,-7.219,4.639,15.43
-0.911,-7.37,5.097,15.432
-0.785,-7.795,4.418,15.522
-0.592,-7.141,4.604,15.524
-0.625,-6.577,4.589,15.525
-0.461,-6.425,4.584,15.531
-0.036,-5.16,5.645,15.623
-0.317,-5.408,6.006,15.624
-1.121,-6.498,6.074,15.626
-0.806,-8.036,6.902,15.627
0.866,-6.515,8.111,15.629
1.329,-5.444,7.382,15.723
0.851,-4.404,6.488,15.724
0.603,-4.907,5.476,15.726
-0.649,-6.704,5.788,15.727
-2.139,-7.995,7.34,15.744
1.344,-8.856,10.078,15.823
2.786,-8.523,11.343,15.824
2.214,-6.577,10.757,15.826
1.648,-6.606,9.694,15.828
1.887,-6.786,8.047,15.829
3.253,-6.282,7.413,15.922
3.785,-7.464,6.865,15.931
4.464,-8.009,6.164,15.932
4.32,-8.0,6.26,15.935
3.942,-7.355,6.362,15.936
4.635,-8.139,4.488,16.027
5.104,-7.816,4.563,16.029
5.729,-6.814,5.143,16.03
5.32,-6.982,5.216,16.032
5.12,-7.782,3.916,16.034
5.102,-7.808,3.482,16.097
4.843,-7.671,3.714,16.099
4.792,-7.967,3.573,16.101
4.769,-8.378,3.876,16.112
4.49,-8.859,4.492,16.114
3.945,-9.58,4.996,16.221
3.718,-10.073,5.335,16.223
3.794,-9.476,5.755,16.24
2.994,-9.576,6.255,16.241
3.041,-10.863,6.033,16.324
3.49,-12.259,5.892,16.325
2.845,-12.88,5.796,16.327
2.382,-11.127,4.765,16.329
2.233,-8.731,3.406,16.33
1.78,-8.018,2.784,16.332
2.163,-7.278,4.235,16.422
2.353,-7.912,4.539,16.424
2.563,-8.998,4.775,16.426
2.568,-9.781,5.573,16.427
2.374,-10.044,6.231,16.429
2.896,-8.445,7.889,16.522
2.787,-7.534,7.668,16.524
2.76,-7.074,7.449,16.536
2.683,-6.779,7.257,16.548
2.602,-6.528,7.155,16.549
0.545,-4.476,8.901,16.626
0.324,-4.681,8.805,16.628
0.236,-4.719,8.775,16.629
-1.104,-5.091,8.377,16.631
-1.111,-4.979,8.291,16.633
-1.123,-3.761,8.579,16.722
-0.881,-3.987,8.435,16.729
-0.761,-4.249,8.563,16.73
-0.841,-4.274,8.744,16.732
-1.266,-4.459,8.531,16.734
-1.131,-4.256,8.508,16.822
-1.23,-3.594,8.555,16.824
-1.1,-3.1,8.9,16.826
-1.078,-2.701,9.074,16.827
-1.118,-2.452,9.311,16.829
-0.906,-2.271,10.422,16.922
-1.153,-2.655,12.134,16.934
-0.755,-1.978,11.741,16.936
0.791,-1.157,9.782,16.937
2.282,-0.552,8.211,16.939
2.223,2.01,7.219,17.023
1.929,2.104,6.468,17.026
1.483,1.884,6.029,17.028
1.429,1.504,6.868,17.029
0.975,1.259,8.731,17.031
2.471,1.327,10.749,17.122
2.869,1.473,12.371,17.128
2.987,2.018,12.953,17.13
3.056,2.678,11.641,17.132
3.052,1.776,11.07,17.133
3.919,1.76,9.672,17.228
3.287,3.125,8.968,17.23
3.542,3.628,8.649,17.232
2.552,4.368,8.245,17.233
1.982,5.018,7.776,17.322
2.367,4.467,8.233,17.334
2.308,3.925,8.922,17.336
2.339,3.627,8.908,17.339
2.251,3.816,8.99,17.341
2.039,5.209,8.56,17.422
1.795,5.224,8.573,17.424
1.23,5.216,8.749,17.425
0.877,5.418,8.821,17.427
1.769,6.692,8.404,17.429
-0.55,8.854,6.738,17.522
-0.921,8.587,7.48,17.525
-1.178,8.204,6.945,17.527
-1.458,7.926,7.54,17.529
-1.431,7.376,7.733,17.53
-2.502,9.981,1.912,17.622
-2.089,10.716,0.126,17.624
-1.921,11.768,-0.253,17.625
-2.023,12.549,-0.24,17.627
-1.388,12.535,0.214,17.629
-2.038,9.733,-5.673,17.722
-1.716,8.985,-5.145,17.724
-1.587,8.389,-4.609,17.726
-1.633,8.071,-4.691,17.727
-1.116,8.185,-4.445,17.732
-2.861,6.868,-6.027,17.822
-2.818,6.963,-6.225,17.824
-2.902,7.237,-6.315,17.825
-2.792,7.653,-6.041,17.831
-2.736,7.726,-6.651,17.833
-2.313,6.404,-8.526,17.922
-1.922,6.074,-9.043,17.924
-1.504,6.035,-9.109,17.925
-1.122,6.174,-9.043,17.927
-2.389,4.504,-9.636,17.929
-1.772,2.4,-10.392,18.021
-1.494,2.4,-10.088,18.023
-1.327,2.7,-9.978,18.025
-0.801,2.7,-10.23,18.03
-0.746,1.8,-10.314,18.042
-2.87,0.108,-9.555,18.122
-2.321,-0.03,-9.181,18.124
-1.753,-2.113,-9.579,18.131
-1.413,-3.328,-9.67,18.133
-1.151,-2.838,-9.526,18.135
-2.504,-3.777,-8.185,18.24
-2.526,-3.742,-8.094,18.241
-2.058,-3.849,-8.266,18.243
-1.532,-4.008,-8.072,18.245
-1.13,-4.519,-7.879,18.246
-0.413,-6.422,-6.361,18.326
-0.026,-5.943,-6.322,18.328
0.087,-5.522,-6.461,18.33
0.448,-5.987,-6.643,18.332
0.7,-6.7,-6.3,18.333
-0.629,-6.943,-5.886,18.401
-0.257,-6.686,-5.671,18.403
0.08,-7.316,-4.482,18.434
0.067,-7.506,-3.831,18.447
0.39,-8.008,-3.541,18.449
0.469,-7.924,-3.622,18.52
0.104,-7.137,-3.784,18.522
0.569,-6.724,-4.622,18.523
1.014,-7.162,-5.172,18.624
1.399,-7.846,-5.102,18.625
1.323,-7.952,-5.154,18.627
1.389,-7.401,-5.422,18.632
1.437,-7.615,-5.627,18.634
1.591,-8.01,-5.618,18.636
1.595,-7.928,-5.41,18.723
1.599,-7.846,-5.202,18.725
1.737,-7.415,-5.327,18.726
2.078,-7.802,-4.844,18.728
1.614,-8.062,-4.972,18.73
1.778,-7.102,-5.644,18.731
1.757,-8.158,-4.985,18.822
1.757,-8.158,-4.985,18.823
1.19,-8.155,-5.12,18.843
1.477,-7.448,-5.646,18.846
1.559,-7.867,-5.481,18.848
2.2,-6.0,-6.7,18.923
-0.431,-8.924,-4.422,18.925
1.836,-7.76,-5.529,18.928
1.765,-7.494,-5.969,18.93
1.443,-9.042,-5.015,19.022
1.324,-8.707,-4.952,19.023
0.582,-8.32,-5.236,19.025
1.233,-8.597,-5.235,19.027
1.56,-8.622,-5.279,19.028
1.478,-8.202,-5.444,19.123
1.242,-8.287,-5.117,19.124
1.461,-8.276,-5.077,19.126
1.262,-8.131,-5.275,19.127
1.283,-7.974,-5.434,19.133
1.57,-8.166,-5.459,19.228
1.631,-7.988,-5.339,19.236
1.523,-7.952,-5.254,19.248
1.794,-8.073,-5.212,19.25
1.411,-7.999,-5.378,19.253
2.183,-7.774,-5.434,19.325
1.912,-7.653,-5.476,19.327
0.678,-8.098,-5.19,19.33
0.98,-8.116,-5.282,19.332
1.255,-7.996,-5.38,19.334
