vertical_Accel_x,vertical_Accel_y,vertical_Accel_z,accel_time_list
1.716,-2.738,10.632,0.0
1.236,-2.938,9.772,0.002
0.064,-2.262,10.328,0.003
0.215,-1.848,9.53,0.005
-1.155,-1.952,8.89,0.007
0.656,-2.238,9.712,0.126
0.018,-2.219,8.936,0.128
-0.099,-2.29,8.902,0.13
0.161,-2.59,9.222,0.131
-0.254,-2.643,9.291,0.227
-0.412,-2.424,9.375,0.228
-0.084,-2.338,9.532,0.23
0.09,-2.505,9.579,0.231
0.014,-2.357,9.529,0.238
-0.103,-2.429,9.494,0.239
-0.295,-2.352,9.41,0.3
-0.299,-2.39,9.502,0.301
-0.122,-2.519,9.456,0.303
-0.137,-2.571,9.326,0.308
-0.114,-2.443,9.271,0.32
-0.076,-2.262,9.348,0.399
0.022,-2.281,9.344,0.401
0.007,-2.333,9.213,0.403
-0.095,-2.352,9.31,0.503
-0.076,-2.262,9.348,0.505
-0.118,-2.481,9.364,0.506
-0.22,-2.5,9.46,0.508
-0.326,-2.557,9.649,0.51
-0.345,-2.648,9.61,0.629
-0.31,-2.505,9.779,0.631
-0.405,-2.448,9.69,0.632
-0.349,-2.686,9.703,0.634
-0.33,-2.595,9.741,0.636
-0.231,-2.614,9.737,0.727
-0.231,-2.614,9.737,0.729
-0.126,-2.557,9.549,0.735
-0.039,-2.59,9.322,0.737
-0.118,-2.481,9.364,0.743
-0.212,-2.424,9.275,0.755
-0.1,-2.508,9.138,0.757
-0.1,-4.089,8.563,0.824
-0.1,-4.034,8.48,0.826
-0.1,-3.979,8.396,0.828
0.0,-4.062,8.341,0.834
-0.2,-3.979,8.396,0.836
-0.3,-4.007,8.258,0.925
-0.6,-4.119,8.064,0.926
-0.7,-4.009,7.897,0.932
-0.8,-3.677,7.757,0.934
-0.7,-3.457,7.423,1.021
-0.5,-3.153,7.144,1.023
-0.4,-3.072,6.839,1.025
-0.4,-3.434,6.48,1.026
-0.6,-3.519,6.064,1.033
-0.4,-3.272,5.508,1.123
-0.4,-2.832,4.84,1.125
-0.5,-2.337,4.089,1.126
0.003,-3.11,3.53,1.138
-0.57,-3.983,3.191,1.201
-1.291,-4.852,3.826,1.203
-2.271,-5.54,3.623,1.204
-3.21,-5.434,4.875,1.206
-2.282,-5.5,5.129,1.207
-3.076,-5.8,4.706,1.209
-1.605,-7.527,4.101,1.298
-2.932,-7.861,4.806,1.299
-3.647,-8.637,5.149,1.301
-4.719,-9.597,5.584,1.302
-2.408,-12.024,6.242,1.4
-3.657,-13.329,6.114,1.402
-4.513,-14.467,6.073,1.403
-4.662,-14.981,5.89,1.405
-2.922,-15.631,4.638,1.407
1.273,-16.075,0.027,1.499
0.869,-15.614,-0.669,1.501
1.033,-14.667,0.567,1.503
0.837,-12.927,2.263,1.524
0.069,-11.614,2.831,1.526
-0.482,-10.824,2.582,1.625
-0.902,-10.42,2.102,1.63
-0.604,-10.039,1.204,1.631
-0.037,-9.873,0.037,1.633
0.216,-10.243,-1.016,1.635
1.994,-6.474,-7.957,1.712
1.83,-5.741,-8.609,1.713
1.53,-5.141,-9.009,1.715
1.352,-4.981,-9.061,1.717
1.341,-4.905,-8.789,1.722
1.145,-4.756,-8.618,1.724
1.432,-4.716,-8.324,1.798
1.752,-5.181,-7.961,1.8
1.963,-5.845,-7.84,1.801
1.895,-6.462,-7.964,1.803
1.841,-6.905,-7.989,1.9
1.676,-7.385,-7.934,1.902
1.494,-7.874,-7.657,1.913
1.338,-8.142,-7.367,1.915
1.328,-8.066,-7.095,1.916
0.521,-8.775,-5.883,2.025
0.462,-8.626,-5.949,2.027
0.528,-8.63,-5.713,2.028
0.498,-8.611,-5.492,2.04
0.526,-8.742,-5.206,2.042
0.534,-9.758,-3.049,2.125
-1.446,-9.621,-1.861,2.127
-1.134,-9.579,-0.699,2.129
-0.808,-9.395,-0.475,2.131
-0.682,-9.374,-0.854,2.133
-0.407,-9.558,-0.878,2.134
-0.643,-9.411,-1.371,2.224
-0.636,-9.453,-1.793,2.23
-0.989,-9.232,-2.532,2.231
-1.008,-9.095,-3.375,2.233
-0.796,-9.153,-3.413,2.235
0.832,-8.783,-4.302,2.324
1.626,-8.006,-5.702,2.326
1.684,-8.044,-5.915,2.331
1.779,-8.059,-5.886,2.332
1.689,-7.949,-5.883,2.334
1.784,-7.964,-5.855,2.423
1.758,-7.898,-5.733,2.428
1.695,-7.955,-5.552,2.43
1.732,-7.932,-5.311,2.432
1.747,-7.647,-5.216,2.5
1.753,-7.553,-5.184,2.501
1.768,-7.808,-5.369,2.507
1.884,-7.984,-5.495,2.509
1.837,-8.197,-5.799,2.511
1.984,-8.344,-6.015,2.598
1.984,-8.344,-6.015,2.6
2.184,-8.184,-5.895,2.605
2.153,-8.213,-5.804,2.607
2.111,-8.431,-5.777,2.701
2.237,-8.417,-5.839,2.713
2.084,-8.264,-5.955,2.717
2.084,-8.264,-5.955,2.719
2.021,-8.321,-5.774,2.722
1.619,-9.213,-3.741,2.799
1.571,-9.13,-3.539,2.801
1.542,-9.138,-3.443,2.802
1.522,-9.047,-3.337,2.804
1.522,-9.047,-3.337,2.806
1.427,-9.036,-3.365,2.923
1.359,-9.018,-3.488,2.929
1.292,-8.999,-3.611,2.931
1.292,-8.999,-3.611,2.933
1.292,-8.999,-3.611,2.934
1.292,-8.999,-3.611,3.026
1.292,-8.999,-3.611,3.028
1.188,-9.088,-3.649,3.029
1.188,-9.088,-3.649,3.031
1.188,-9.088,-3.649,3.033
1.196,-8.988,-3.638,3.045
-0.1,-9.2,-3.1,3.124
-0.004,-9.22,-3.08,3.126
0.073,-9.337,-3.063,3.127
0.169,-9.357,-3.043,3.132
0.225,-9.473,-2.927,3.134
0.243,-9.784,-2.816,3.2
-0.337,-10.486,-2.714,3.202
-0.671,-12.153,-2.747,3.208
-0.443,-12.916,-2.584,3.21
-0.188,-11.141,-2.059,3.212
0.028,-9.732,-3.708,3.297
-0.1,-9.7,-4.2,3.299
0.481,-8.745,-4.228,3.3
1.158,-7.54,-4.062,3.302
1.453,-7.213,-4.321,3.4
1.515,-7.404,-4.877,3.401
1.464,-7.366,-5.004,3.403
1.219,-7.255,-4.872,3.405
1.405,-6.825,-5.408,3.424
0.809,-7.477,-4.536,3.499
1.026,-7.657,-4.36,3.501
1.017,-8.079,-4.325,3.502
1.036,-8.434,-4.596,3.504
0.898,-8.825,-5.053,3.505
0.815,-9.104,-5.577,3.599
0.694,-9.274,-5.658,3.601
0.604,-9.251,-5.694,3.609
0.564,-9.266,-5.604,3.611
0.585,-9.496,-5.523,3.612
-1.16,-9.7,-4.62,3.698
-1.019,-9.363,-4.343,3.704
-1.053,-9.142,-4.342,3.706
-1.027,-8.958,-4.218,3.708
0.564,-8.566,-4.604,3.799
0.594,-8.374,-4.558,3.8
0.664,-8.166,-4.604,3.802
0.655,-7.989,-4.468,3.808
0.83,-7.708,-4.455,3.82
1.236,-8.404,-3.189,3.924
0.945,-8.495,-2.416,3.926
0.882,-8.818,-0.045,3.928
1.236,-8.944,1.031,3.929
1.564,-8.996,0.889,3.931
0.676,-9.361,1.176,4.001
0.758,-9.506,0.558,4.002
0.611,-9.589,-0.656,4.004
0.521,-9.897,-1.679,4.006
0.551,-10.24,-2.516,4.007
3.147,-9.464,-4.533,4.016
3.086,-9.398,-5.025,4.018
3.12,-9.074,-5.209,4.122
2.834,-9.776,-5.085,4.123
3.013,-11.588,-5.248,4.129
3.047,-11.264,-5.433,4.225
3.18,-9.826,-4.891,4.227
2.801,-9.314,-5.527,4.228
2.497,-9.357,-5.82,4.24
2.515,-8.916,-4.502,4.242
2.421,-8.589,-3.836,4.244
2.141,-8.677,-3.772,4.326
2.007,-8.501,-3.488,4.328
1.949,-8.093,-3.487,4.329
1.836,-8.305,-3.338,4.331
1.887,-8.812,-3.352,4.332
0.988,-9.499,-2.091,4.399
1.071,-9.606,-2.052,4.401
0.971,-9.906,-2.152,4.402
0.883,-10.108,-2.26,4.405
0.846,-9.886,-2.088,4.406
-0.017,-9.847,-1.189,4.498
-0.143,-9.809,-1.138,4.5
-0.143,-9.809,-1.138,4.501
-0.234,-9.794,-1.177,4.503
-0.211,-9.698,-1.192,4.598
-0.257,-9.491,-1.262,4.6
-0.247,-9.275,-1.202,4.611
-0.202,-9.083,-1.232,4.613
-0.641,-8.787,-2.175,4.616
-0.574,-8.701,-2.04,4.723
-0.574,-8.701,-2.04,4.725
-0.46,-8.632,-1.993,4.727
-0.314,-8.469,-1.947,4.728
-0.215,-8.288,-1.815,4.73
0.338,-8.44,-0.958,4.825
0.428,-8.455,-0.919,4.827
0.6,-8.7,-0.9,4.829
0.808,-8.968,-0.972,4.83
0.979,-9.213,-0.953,4.832
0.992,-9.732,-0.928,4.834
1.965,-10.397,-1.774,4.924
2.16,-11.424,-1.689,4.926
2.255,-12.232,-1.558,4.927
2.485,-12.444,-1.353,4.929
2.406,-12.31,-1.077,4.931
1.004,-11.78,-2.42,5.025
0.957,-13.416,-1.784,5.031
1.186,-13.069,-1.031,5.032
1.347,-10.365,-0.135,5.034
0.545,-8.975,-0.425,5.035
1.857,-8.243,-2.969,5.122
1.935,-8.065,-3.853,5.124
2.226,-6.886,-5.362,5.125
2.689,-6.209,-6.203,5.127
2.868,-6.128,-7.109,5.2
1.2,-5.8,-8.4,5.202
0.879,-6.225,-8.317,5.203
0.692,-6.145,-7.67,5.205
0.526,-6.142,-6.606,5.206
0.257,-6.46,-6.026,5.208
0.065,-6.239,-6.652,5.297
0.179,-6.683,-6.951,5.299
0.463,-6.547,-7.481,5.3
0.577,-6.091,-7.68,5.302
0.381,-5.775,-7.723,5.398
-0.025,-5.799,-7.909,5.399
-0.122,-5.887,-8.116,5.401
0.026,-5.797,-8.127,5.403
0.718,-7.25,-6.298,5.498
0.656,-7.51,-6.16,5.5
0.668,-8.044,-5.926,5.502
0.743,-7.904,-5.484,5.503
0.681,-7.763,-5.247,5.505
0.453,-7.951,-5.194,5.6
0.538,-7.973,-4.907,5.602
0.809,-7.575,-4.399,5.604
1.007,-7.303,-4.088,5.606
1.246,-7.262,-4.05,5.607
2.18,-7.977,-3.891,5.698
6.177,-9.619,-0.625,5.7
6.451,-10.279,-2.183,5.702
5.229,-9.898,-4.408,5.703
4.099,-8.514,-6.445,5.705
5.222,-4.97,-7.839,5.799
4.436,-4.278,-9.132,5.801
3.796,-5.283,-8.802,5.802
3.35,-5.785,-7.925,5.804
2.84,-5.894,-6.73,5.805
1.533,-6.733,-5.367,5.898
1.595,-6.755,-5.652,5.9
1.421,-8.461,-5.254,5.91
1.589,-10.289,-6.763,5.913
2.079,-10.659,-8.586,5.914
2.905,-9.885,-8.828,6.025
2.963,-8.643,-9.081,6.033
2.768,-8.368,-8.289,6.034
2.179,-7.879,-7.126,6.036
1.532,-7.252,-6.051,6.038
1.0,-7.34,-5.38,6.124
0.921,-7.681,-5.294,6.126
1.426,-7.626,-5.542,6.128
1.795,-7.775,-5.792,6.129
2.089,-8.169,-5.923,6.141
2.179,-8.179,-6.226,6.143
1.579,-8.67,-5.281,6.224
1.464,-8.566,-5.204,6.226
1.319,-8.655,-5.172,6.227
1.164,-8.566,-5.004,6.229
1.064,-8.366,-4.904,6.231
0.711,-7.848,-5.61,6.323
0.504,-7.945,-5.522,6.325
0.38,-8.077,-5.391,6.326
0.35,-8.007,-5.272,6.328
0.391,-7.825,-5.201,6.33
0.35,-7.593,-4.928,6.423
0.371,-7.502,-4.892,6.425
0.413,-7.32,-4.821,6.426
0.527,-7.026,-4.797,6.428
0.672,-6.788,-4.648,6.43
0.869,-6.53,-4.581,6.524
0.911,-6.348,-4.51,6.526
1.066,-6.271,-4.515,6.535
1.087,-6.58,-4.579,6.546
0.983,-7.036,-4.757,6.548
1.544,-6.444,-5.722,6.598
1.644,-6.704,-5.902,6.6
1.767,-7.107,-6.253,6.602
2.056,-7.656,-6.578,6.603
2.356,-8.016,-7.058,6.609
2.705,-8.925,-6.608,6.697
2.795,-8.935,-6.912,6.698
2.542,-8.862,-7.087,6.7
2.274,-8.634,-6.778,6.706
2.163,-8.903,-6.901,6.798
2.253,-11.913,-7.704,6.8
2.011,-12.191,-8.097,6.803
2.379,-9.639,-6.946,6.804
3.2,-8.72,-6.04,6.806
1.997,-6.637,-8.278,6.924
1.768,-5.984,-8.176,6.926
1.89,-4.924,-8.028,6.936
1.695,-5.062,-8.364,6.945
1.151,-5.894,-9.254,6.947
1.189,-6.836,-8.621,7.029
1.139,-7.03,-8.274,7.032
1.062,-7.158,-7.433,7.033
0.53,-8.119,-5.621,7.039
0.226,-7.942,-5.406,7.042
0.123,-7.864,-5.291,7.044
-0.157,-7.23,-5.933,7.123
-0.09,-6.86,-6.556,7.125
0.057,-6.77,-6.567,7.126
0.332,-6.673,-6.641,7.128
0.531,-6.377,-7.005,7.129
0.563,-5.31,-7.645,7.223
0.7,-4.9,-7.7,7.225
0.459,-4.822,-7.539,7.226
0.337,-4.89,-7.255,7.232
0.249,-5.053,-6.873,7.234
0.269,-5.292,-6.604,7.323
0.304,-5.288,-6.306,7.325
0.412,-5.263,-6.218,7.327
0.388,-5.337,-6.282,7.328
0.402,-5.294,-6.653,7.335
0.343,-5.371,-7.014,7.398
0.524,-5.427,-7.337,7.399
0.608,-5.676,-7.712,7.401
1.472,-6.611,-7.202,7.402
3.756,-5.295,-7.921,7.497
3.923,-5.829,-7.754,7.498
3.19,-5.562,-8.388,7.5
3.272,-4.89,-9.022,7.502
3.305,-4.981,-9.224,7.598
3.676,-4.395,-8.981,7.6
2.938,-3.848,-9.79,7.601
2.512,-5.49,-12.342,7.603
3.247,-6.233,-13.773,7.605
3.449,-4.586,-12.003,7.698
3.63,-3.662,-10.308,7.716
3.548,-4.51,-10.238,7.718
2.845,-5.881,-8.944,7.72
1.958,-5.548,-7.65,7.722
0.117,-5.396,-7.052,7.801
-0.026,-5.957,-7.122,7.802
-0.061,-5.665,-7.817,7.804
0.409,-5.148,-7.926,7.812
1.157,-5.161,-8.07,7.814
1.082,-6.471,-7.658,7.898
1.218,-6.629,-8.042,7.899
0.991,-6.236,-8.779,7.901
0.6,-6.5,-8.0,7.903
0.154,-6.482,-7.46,7.904
-0.135,-6.539,-7.252,7.998
-0.312,-6.548,-6.972,7.999
-0.286,-6.545,-6.599,8.001
-0.21,-6.54,-6.444,8.003
-0.23,-6.419,-6.631,8.008
-0.103,-6.412,-6.693,8.098
-0.138,-6.25,-6.746,8.1
-0.137,-6.047,-6.881,8.102
-0.228,-6.011,-6.902,8.103
-0.262,-5.85,-6.954,8.105
-0.15,-5.802,-6.882,8.23
0.094,-5.624,-6.686,8.231
0.079,-5.583,-6.551,8.233
0.079,-5.583,-6.551,8.234
0.114,-5.745,-6.499,8.236
0.051,-5.994,-6.653,8.324
0.095,-6.32,-6.922,8.327
0.103,-6.688,-7.107,8.33
0.203,-6.888,-7.407,8.332
0.288,-7.048,-7.572,8.334
0.379,-7.083,-7.551,8.337
0.365,-6.839,-7.552,8.423
-0.176,-8.305,-8.655,8.424
-0.643,-10.67,-10.667,8.426
-0.126,-9.903,-10.173,8.437
0.853,-7.386,-8.225,8.44
2.464,-5.805,-9.039,8.523
2.244,-5.905,-9.079,8.524
2.581,-4.976,-8.005,8.526
2.95,-4.138,-7.132,8.527
2.949,-4.086,-7.503,8.529
3.024,-3.702,-8.52,8.625
2.994,-3.924,-9.545,8.627
3.355,-4.48,-8.996,8.628
3.49,-4.441,-8.608,8.63
3.455,-4.38,-8.396,8.631
3.114,-3.643,-8.429,8.723
2.861,-3.055,-8.451,8.725
2.641,-2.737,-8.767,8.727
2.551,-2.796,-8.859,8.729
2.443,-2.929,-8.886,8.73
2.367,-3.431,-8.706,8.798
2.241,-3.637,-8.667,8.801
2.32,-3.718,-8.584,8.812
1.856,-5.095,-7.721,8.823
1.854,-4.943,-7.591,8.824
1.918,-4.948,-7.43,8.898
1.917,-4.871,-7.366,8.899
2.045,-4.881,-7.044,8.902
2.138,-4.748,-6.89,8.998
2.169,-4.686,-6.963,9.0
2.294,-4.643,-7.011,9.002
2.196,-4.495,-7.341,9.003
2.225,-4.381,-7.784,9.005
2.257,-4.471,-7.986,9.123
2.452,-4.79,-7.762,9.124
2.835,-5.019,-7.796,9.126
3.153,-5.167,-7.927,9.128
3.378,-5.448,-8.21,9.129
3.538,-5.648,-8.59,9.224
3.538,-5.748,-9.09,9.225
3.441,-5.676,-9.485,9.227
3.029,-5.586,-9.443,9.24
3.232,-6.69,-10.302,9.25
2.9,-8.0,-11.7,9.251
2.592,-6.19,-10.282,9.329
2.731,-4.614,-8.737,9.331
2.588,-5.71,-9.458,9.333
2.246,-6.157,-9.709,9.334
2.336,-5.595,-8.361,9.336
1.73,-5.062,-7.608,9.422
1.285,-4.881,-7.364,9.424
1.219,-4.624,-6.895,9.426
1.44,-4.6,-6.92,9.427
1.788,-4.71,-7.558,9.429
2.007,-4.633,-7.953,9.5
2.126,-4.157,-8.049,9.501
1.996,-3.995,-8.241,9.503
1.842,-4.252,-8.25,9.504
1.753,-4.667,-8.227,9.506
1.66,-4.8,-8.38,9.624
0.191,-5.252,-8.074,9.654
0.152,-5.287,-7.857,9.656
0.17,-5.583,-7.809,9.658
0.187,-5.878,-7.761,9.724
0.226,-5.643,-7.578,9.729
0.196,-5.426,-7.687,9.73
0.209,-5.448,-7.826,9.732
0.126,-5.343,-7.778,9.734
0.23,-4.917,-7.691,9.735
0.257,-4.761,-7.57,9.823
0.365,-4.709,-7.496,9.825
0.557,-4.761,-7.47,9.83
0.626,-4.943,-7.578,9.831
0.504,-4.974,-7.513,9.833
0.465,-5.109,-7.496,9.897
0.548,-5.313,-7.743,9.898
0.617,-5.596,-8.052,9.904
0.713,-5.722,-8.239,9.906
0.796,-5.926,-8.487,9.908
2.333,-5.467,-8.667,10.001
2.302,-5.452,-8.53,10.003
2.28,-6.2,-9.04,10.004
2.119,-8.524,-11.095,10.006
2.211,-8.314,-10.877,10.097
2.488,-4.749,-9.39,10.099
2.337,-3.378,-9.935,10.109
2.421,-3.447,-10.368,10.111
3.047,-2.532,-9.379,10.112
2.163,-1.159,-9.226,10.197
2.1,-1.0,-9.2,10.199
1.793,-1.452,-9.485,10.201
1.704,-2.174,-9.507,10.207
1.763,-2.759,-9.626,10.209
1.552,-3.237,-9.904,10.297
1.378,-3.456,-9.756,10.298
1.241,-3.415,-9.181,10.304
1.237,-3.341,-8.874,10.306
1.322,-3.344,-8.644,10.422
1.33,-3.293,-8.559,10.434
1.126,-2.619,-8.952,10.435
1.133,-2.567,-8.867,10.437
1.078,-2.356,-8.756,10.447
1.339,-1.317,-8.839,10.524
1.348,-1.278,-8.748,10.526
1.478,-1.405,-8.378,10.528
1.478,-1.405,-8.378,10.529
1.503,-1.287,-8.103,10.534
1.634,-1.243,-8.134,10.536
1.664,-1.199,-8.264,10.539
1.718,0.424,-8.518,10.623
1.639,0.875,-8.539,10.625
1.229,0.506,-8.729,10.627
1.184,0.69,-8.884,10.629
1.282,0.976,-9.282,10.635
1.675,0.822,-9.775,10.721
1.867,0.667,-10.467,10.723
1.898,0.686,-11.098,10.725
2.012,1.082,-11.112,10.736
1.855,1.284,-10.955,10.822
2.271,-0.106,-10.471,10.824
1.904,1.127,-10.704,10.829
2.076,0.335,-10.276,10.831
1.941,0.988,-10.041,10.832
1.716,2.726,-11.216,10.922
1.57,2.976,-13.17,10.924
1.494,3.215,-12.294,10.925
1.711,2.756,-10.311,10.927
1.482,2.545,-10.582,10.929
1.634,2.181,-10.834,11.031
1.738,1.537,-10.238,11.033
1.474,1.132,-9.774,11.034
0.877,1.175,-10.077,11.036
0.589,1.244,-10.589,11.038
0.676,3.032,-10.3,11.132
1.1,2.7,-10.1,11.133
1.044,2.508,-10.1,11.135
1.096,1.972,-10.0,11.15
1.228,0.996,-10.0,11.152
1.788,2.446,-9.104,11.227
2.292,2.097,-9.036,11.229
2.059,3.01,-8.514,11.231
1.715,4.668,-8.195,11.233
1.671,4.564,-8.11,11.241
0.7,5.18,-8.24,11.299
1.022,5.184,-7.764,11.307
0.989,4.418,-7.798,11.309
0.789,4.098,-8.038,11.311
0.8,3.86,-7.98,11.312
0.856,3.711,-7.911,11.396
0.878,3.836,-8.096,11.399
0.811,4.002,-8.262,11.4
0.9,4.18,-8.24,11.402
0.911,4.382,-8.102,11.522
0.967,4.453,-7.993,11.523
1.078,4.376,-7.816,11.529
0.016,4.519,-7.815,11.541
-0.008,4.538,-7.91,11.543
0.934,5.762,-7.185,11.623
0.924,5.793,-7.28,11.625
0.976,6.007,-7.32,11.627
0.946,6.101,-7.603,11.633
1.063,6.382,-7.946,11.635
1.064,6.567,-8.202,11.636
2.441,6.488,-8.559,11.726
1.891,8.078,-7.726,11.732
1.993,8.105,-7.82,11.733
2.007,8.195,-7.78,11.735
1.99,8.064,-7.729,11.742
2.137,7.717,-7.989,11.799
1.919,7.572,-7.842,11.801
1.932,8.949,-10.404,11.803
1.836,10.103,-12.192,11.805
1.501,8.514,-9.297,11.806
0.8,7.928,-5.549,11.92
0.8,7.591,-4.817,11.946
0.9,7.379,-4.477,11.948
0.957,7.729,-2.686,11.958
1.041,8.163,-2.433,12.028
0.896,8.784,-2.937,12.03
0.706,9.324,-3.645,12.031
0.7,9.4,-4.8,12.033
0.551,9.504,-5.641,12.035
0.414,9.157,-5.671,12.036
0.496,8.384,-5.437,12.097
0.327,8.406,-5.261,12.098
0.4,8.6,-5.5,12.1
0.312,8.749,-5.49,12.101
0.337,8.547,-5.269,12.103
0.653,9.13,-3.311,12.195
0.664,9.096,-3.013,12.196
0.791,8.887,-2.638,12.198
0.783,8.274,-2.977,12.297
0.851,8.077,-3.27,12.298
0.8,8.1,-3.4,12.325
1.185,7.528,-4.117,12.327
1.657,7.036,-4.391,12.33
2.297,6.224,-5.156,12.397
2.423,6.431,-4.808,12.398
1.943,7.764,-2.909,12.407
1.843,8.564,-2.109,12.41
1.762,8.843,-1.872,12.413
1.783,9.074,-1.377,12.497
1.519,9.379,-1.064,12.498
1.417,9.426,-1.323,12.5
1.494,9.84,-1.279,12.508
1.455,10.083,-1.451,12.51
2.546,9.943,-2.391,12.597
2.643,9.871,-2.786,12.598
1.186,10.143,-3.629,12.604
1.231,10.122,-3.924,12.606
1.398,9.892,-4.018,12.607
1.337,9.947,-4.369,12.728
1.382,10.027,-4.165,12.743
1.204,10.816,-5.463,12.745
1.633,11.431,-7.806,12.747
2.8,9.92,-7.44,12.749
1.598,8.989,-7.518,12.823
1.278,8.389,-7.778,12.824
0.767,7.733,-7.367,12.826
0.616,6.678,-6.976,12.831
0.564,5.822,-7.284,12.833
0.724,5.622,-7.404,12.835
-0.676,5.678,-7.372,12.924
0.096,6.891,-6.916,12.926
0.107,7.218,-7.067,12.928
0.364,7.609,-6.864,12.929
0.36,8.0,-6.48,12.931
0.333,8.182,-6.353,13.021
0.327,8.118,-6.027,13.023
0.322,8.055,-5.702,13.025
0.191,7.927,-5.391,13.026
0.009,7.773,-5.209,13.038
-0.545,7.092,-5.953,13.121
-0.753,6.945,-6.208,13.123
-0.831,6.849,-6.482,13.125
-0.847,6.655,-6.592,13.126
-0.845,6.592,-6.753,13.128
-0.863,6.461,-6.702,13.223
-0.769,6.251,-6.618,13.229
-0.757,6.071,-6.486,13.231
-0.698,6.037,-6.161,13.232
-0.555,5.908,-6.047,13.234
-0.798,6.625,-4.908,13.298
-0.572,6.654,-4.713,13.305
-0.415,6.661,-4.639,13.306
-0.408,6.799,-4.668,13.308
-0.345,6.982,-4.818,13.31
0.553,6.882,-5.313,13.395
0.369,7.173,-5.689,13.397
0.496,7.491,-6.116,13.402
0.605,7.864,-6.625,13.413
1.989,8.474,-6.684,13.496
2.253,8.892,-6.899,13.501
2.237,9.322,-6.965,13.503
2.611,9.546,-6.956,13.505
1.698,10.292,-5.318,13.622
1.286,11.743,-6.529,13.625
0.994,13.476,-8.855,13.627
0.778,11.61,-7.002,13.629
2.568,8.646,-5.462,13.631
0.447,9.52,-3.194,13.725
0.557,9.656,-3.055,13.727
0.55,9.597,-2.344,13.729
0.534,8.996,-1.958,13.73
0.204,9.477,-1.95,13.732
-0.275,10.249,-2.972,13.734
-0.542,10.75,-4.043,13.735
0.573,11.218,-3.573,13.821
0.418,10.755,-3.718,13.823
0.584,9.551,-3.564,13.834
0.576,9.329,-2.436,13.836
-0.578,9.411,-2.422,13.843
0.604,9.204,-1.681,13.922
1.015,8.915,-0.326,13.924
1.37,8.87,-1.048,13.926
1.128,9.349,-0.063,13.928
1.32,9.535,0.484,13.93
1.465,9.413,0.328,14.021
1.468,8.843,-2.114,14.022
1.692,8.386,-3.154,14.024
1.483,8.295,-3.726,14.03
1.303,8.03,-3.042,14.129
1.275,7.981,-1.68,14.131
1.038,8.317,-1.071,14.132
0.867,8.867,0.267,14.134
0.74,9.171,1.068,14.136
0.419,8.629,3.332,14.223
0.101,8.618,3.646,14.225
0.031,8.93,3.841,14.244
0.284,9.226,3.406,14.246
0.627,9.557,3.256,14.255
0.781,9.871,3.168,14.333
1.087,9.981,2.845,14.335
1.301,10.318,2.946,14.336
1.573,10.143,4.044,14.34
1.381,10.471,2.268,14.342
1.804,10.504,1.339,14.394
1.076,10.876,2.765,14.396
0.98,10.78,2.804,14.397
1.218,12.618,2.276,14.399
1.457,13.357,1.869,14.496
1.775,11.075,1.645,14.498
1.731,10.231,1.514,14.5
1.447,11.647,0.971,14.501
1.567,11.467,0.567,14.503
1.524,10.624,0.435,14.596
1.155,10.455,0.649,14.598
0.869,10.069,0.786,14.629
0.684,9.484,0.943,14.631
0.525,9.625,1.155,14.634
-0.187,8.428,5.13,14.696
0.14,8.385,5.091,14.698
0.413,8.428,5.53,14.7
0.523,8.806,5.766,14.701
0.558,8.94,5.662,14.703
1.6,8.9,4.1,14.796
1.378,8.197,3.937,14.798
1.243,7.506,3.726,14.799
1.611,7.259,3.495,14.801
1.441,7.477,4.072,14.807
1.557,8.394,3.274,14.896
1.525,8.446,3.643,14.902
1.777,8.582,3.51,14.903
1.961,8.752,3.881,14.905
1.551,9.007,3.213,14.907
-0.881,9.435,1.714,15.021
-0.813,9.349,1.58,15.034
-0.787,9.351,1.22,15.036
-0.683,9.274,0.949,15.038
-0.744,9.144,0.778,15.04
-0.728,8.937,0.695,15.122
-0.485,8.912,0.685,15.127
0.64,8.749,1.902,15.129
0.76,8.751,2.398,15.131
0.705,8.712,2.977,15.132
-0.161,8.237,4.417,15.134
1.298,7.825,5.153,15.224
1.277,8.194,5.334,15.225
1.226,8.757,5.56,15.227
1.242,9.26,5.638,15.229
1.868,9.148,6.749,15.235
1.537,9.417,6.839,15.321
1.426,9.146,6.682,15.327
1.226,11.026,7.342,15.329
-1.077,12.364,9.691,15.33
-1.072,10.63,9.113,15.343
-0.339,6.035,9.583,15.421
-0.13,4.883,8.809,15.422
0.378,3.93,8.335,15.424
0.617,3.296,8.052,15.426
0.517,2.896,8.052,15.427
-0.671,2.157,8.614,15.521
-0.729,2.643,9.286,15.522
-0.962,3.696,9.412,15.524
-1.148,4.285,9.15,15.526
-1.071,4.717,8.694,15.527
-1.048,4.985,8.25,15.625
-0.914,4.911,7.763,15.627
-0.8,4.88,7.84,15.629
-0.881,5.118,8.316,15.631
-1.067,5.027,8.813,15.721
-0.922,3.755,9.616,15.723
-0.769,3.902,9.686,15.724
-0.649,4.116,9.69,15.726
1.052,5.593,8.353,15.737
1.492,6.531,7.02,15.821
2.347,7.411,5.979,15.822
3.145,8.42,4.942,15.824
2.342,6.334,5.736,15.829
2.904,3.867,6.951,15.831
1.604,1.374,8.107,15.897
1.548,0.563,8.596,15.899
1.663,0.559,8.726,15.9
1.252,0.237,9.004,15.902
1.256,0.311,9.311,15.904
1.251,1.694,9.752,15.996
1.237,2.292,9.796,15.998
1.386,2.898,10.243,16.0
1.627,3.541,10.678,16.006
0.392,3.375,10.678,16.096
-0.131,4.898,9.914,16.098
0.065,4.935,9.553,16.099
0.145,4.322,9.949,16.101
1.578,6.33,8.135,16.118
0.778,5.93,9.135,16.196
0.1,8.4,11.4,16.198
0.717,7.796,11.652,16.203
1.522,5.77,9.665,16.205
1.391,6.252,9.674,16.206
1.009,7.448,10.026,16.295
0.926,6.743,8.778,16.297
0.648,5.613,7.543,16.299
0.113,5.122,7.239,16.3
-0.265,5.591,7.704,16.302
-0.352,6.313,7.743,16.413
-0.039,7.035,6.883,16.414
0.135,6.991,7.304,16.416
-0.065,6.291,7.504,16.418
0.791,6.852,6.474,16.419
0.073,6.607,6.838,16.537
-0.571,5.585,8.034,16.543
-0.25,5.198,7.818,16.545
-0.228,4.911,7.902,16.557
-0.17,4.581,8.069,16.559
-0.069,3.808,8.196,16.654
-0.171,4.214,7.843,16.657
-0.067,4.502,7.549,16.66
0.1,4.5,7.3,16.662
0.027,4.62,7.29,16.664
-0.096,4.788,7.206,16.669
-0.053,5.714,6.675,16.72
-0.018,5.671,6.758,16.727
0.017,5.833,6.706,16.728
0.087,5.951,6.737,16.731
0.234,6.065,6.612,16.733
0.38,6.179,6.487,16.795
0.45,6.298,6.518,16.802
0.339,6.346,6.59,16.804
0.291,6.636,6.879,16.805
0.391,6.836,7.179,16.807
0.47,7.119,7.531,16.924
0.682,7.271,7.758,16.938
0.907,6.972,7.75,16.941
0.787,8.179,7.347,17.023
0.685,10.286,10.392,17.024
0.693,10.487,10.849,17.026
1.193,8.787,9.249,17.028
1.071,7.646,8.398,17.033
1.022,6.74,7.552,17.035
1.469,5.771,6.484,17.037
2.601,3.976,6.865,17.122
2.656,3.595,7.621,17.123
2.658,3.948,8.75,17.125
2.766,4.957,9.569,17.127
2.68,5.6,9.74,17.128
3.169,6.286,8.463,17.195
2.987,6.633,7.593,17.197
2.565,5.881,7.404,17.199
2.25,5.938,7.032,17.2
1.96,5.6,7.28,17.202
0.391,5.652,7.274,17.293
0.311,4.655,8.085,17.303
0.302,4.491,8.237,17.305
0.409,4.464,8.148,17.397
0.524,4.206,8.139,17.399
0.482,3.872,8.303,17.4
0.533,3.67,8.088,17.402
0.616,3.637,7.86,17.403
0.658,3.666,7.564,17.512
0.831,3.674,7.319,17.514
0.815,3.742,7.391,17.516
0.984,3.963,7.64,17.517
1.137,4.252,7.962,17.519
2.651,3.967,8.063,17.637
2.873,4.333,8.143,17.639
3.084,4.133,8.596,17.64
3.249,3.833,9.137,17.642
3.373,3.833,9.543,17.649
3.4,3.7,10.2,17.737
3.255,3.533,10.614,17.749
3.135,3.7,10.059,17.751
3.061,3.733,9.49,17.753
2.947,3.7,8.712,17.772
2.594,3.9,8.524,17.774
2.702,5.233,11.225,17.844
3.045,4.767,11.786,17.846
3.137,3.933,9.984,17.848
3.169,3.667,10.492,17.85
2.812,4.0,10.453,17.851
2.008,4.91,9.018,17.903
1.347,5.033,8.573,17.905
0.972,5.49,9.122,17.907
1.296,5.895,8.641,17.908
1.606,5.357,8.189,17.91
0.383,5.304,8.048,17.993
0.696,5.226,7.887,17.995
0.652,4.987,7.857,17.997
0.543,5.039,7.93,18.002
0.343,5.339,7.83,18.122
0.222,5.37,7.765,18.123
0.004,5.274,7.513,18.125
0.004,5.174,7.313,18.127
0.126,5.043,7.178,18.133
-0.086,4.957,7.171,18.223
-0.086,5.057,7.371,18.225
0.061,4.916,7.592,18.228
0.051,4.747,7.627,18.23
-0.057,4.771,7.714,18.238
-0.106,4.918,7.841,18.24
-0.156,5.926,7.068,18.296
-0.065,5.961,7.048,18.298
-0.01,6.04,6.944,18.299
0.123,5.909,6.82,18.301
0.081,6.075,6.923,18.303
0.561,5.335,7.883,18.394
0.617,5.596,8.052,18.399
0.726,5.643,8.178,18.401
0.7,5.8,8.3,18.437
0.726,5.743,8.378,18.52
0.765,5.609,8.396,18.522
0.913,5.422,8.339,18.523
0.952,5.287,8.357,18.525
2.372,6.19,9.822,18.597
2.455,7.819,11.456,18.599
2.594,6.243,9.911,18.6
2.424,5.105,8.319,18.602
2.173,5.367,8.787,18.604
2.3,5.4,8.9,18.605
2.828,4.61,8.278,18.61
3.237,2.853,8.731,18.693
3.114,3.443,9.429,18.694
3.241,4.137,9.867,18.696
3.049,4.704,9.641,18.795
2.604,4.684,9.437,18.796
2.278,4.49,8.698,18.798
2.324,4.302,8.32,18.8
2.316,4.235,8.247,18.811
1.244,3.589,8.489,18.927
1.1,3.0,8.6,18.932
0.974,2.381,8.848,18.934
1.096,2.326,8.893,18.938
1.263,2.459,8.826,18.939
1.558,1.596,8.958,19.021
1.506,1.474,9.006,19.023
1.518,1.15,8.818,19.026
1.595,1.155,8.495,19.028
1.643,1.033,8.443,19.029
1.769,0.744,8.469,19.031
1.951,0.293,8.351,19.12
2.104,-0.284,8.504,19.122
1.861,0.083,8.761,19.127
1.936,0.201,8.936,19.129
1.989,0.152,9.289,19.131
2.221,0.466,9.721,19.232
2.375,0.418,9.975,19.234
2.559,0.325,10.359,19.244
2.547,0.649,10.547,19.246
2.494,0.526,10.594,19.247
1.889,1.678,10.178,19.321
1.467,1.333,10.233,19.323
1.548,2.163,11.496,19.328
1.667,2.833,14.033,19.33
1.896,3.226,12.993,19.331
1.978,1.956,10.956,19.42
1.589,1.978,11.378,19.422
1.289,2.678,11.278,19.423
0.985,2.604,9.77,19.425
0.578,3.056,8.756,19.427
0.141,3.315,9.381,19.525
0.119,3.17,9.937,19.527
0.463,3.259,9.326,19.529
0.485,2.504,9.67,19.531
0.73,1.893,9.359,19.534
1.264,0.499,8.964,19.621
1.26,0.254,8.96,19.637
1.121,0.337,9.021,19.641
1.056,0.538,9.256,19.642
0.878,0.705,9.278,19.644
0.868,0.915,8.968,19.72
0.815,0.964,8.615,19.721
0.736,1.13,8.536,19.726
0.867,1.086,8.567,19.728
1.085,0.836,8.585,19.729
1.064,0.67,8.764,19.819
0.972,0.631,8.772,19.821
1.103,0.587,8.803,19.822
1.186,0.665,8.886,19.831
1.408,0.661,8.908,19.833
1.439,0.617,9.039,19.921
1.514,0.735,9.214,19.923
1.636,0.73,9.336,19.924
1.703,0.887,9.603,19.926
1.678,1.005,9.878,19.928
1.404,2.274,10.007,20.02
1.381,2.43,10.263,20.026
1.348,2.563,10.296,20.028
1.322,2.644,10.244,20.029
1.426,2.619,10.152,20.031
1.461,1.144,10.383,20.121
1.245,1.475,11.434,20.122
0.872,2.494,13.816,20.124
0.867,1.362,11.801,20.132
1.223,0.474,9.47,20.135
1.32,-0.537,10.72,20.223
1.467,-0.667,10.867,20.224
2.1,-1.3,9.2,20.226
2.098,-1.686,8.998,20.232
1.847,-1.429,9.747,20.234
1.446,-2.351,9.846,20.32
1.5,-2.0,10.1,20.326
1.239,-1.552,10.639,20.328
1.071,-1.09,10.471,20.33
1.049,-0.993,9.749,20.344
1.468,-2.176,9.1,20.42
1.4,-2.3,8.9,20.421
1.428,-2.396,8.9,20.423
1.36,-2.52,8.9,20.429
1.28,-2.96,8.8,20.431
1.404,-3.028,8.7,20.52
1.556,-3.192,8.5,20.521
1.856,-2.792,8.3,20.523
2.02,-2.64,8.0,20.525
2.02,-2.64,8.1,20.526
3.121,-2.633,7.726,20.619
3.688,-1.946,7.804,20.621
3.885,-2.632,7.805,20.622
3.831,-3.712,7.456,20.624
3.173,-4.44,7.376,20.72
2.996,-4.549,7.568,20.721
3.026,-5.122,7.791,20.723
3.195,-5.511,7.935,20.728
3.289,-5.483,8.037,20.739
3.444,-5.104,8.185,20.82
3.375,-4.716,8.342,20.821
3.601,-4.738,8.433,20.823
3.597,-5.686,8.101,20.824
3.194,-5.773,8.202,20.826
2.224,-4.768,11.8,20.945
2.024,-5.868,14.2,20.948
2.184,-4.988,11.9,20.95
2.124,-4.068,10.0,20.955
1.424,-4.168,11.6,20.957
1.492,-4.044,11.5,21.021
1.472,-2.904,9.7,21.023
1.192,-1.944,9.5,21.024
0.672,-2.304,9.6,21.026
0.784,-2.688,9.1,21.055
1.032,-2.824,8.9,21.058
1.252,-2.864,8.8,21.119
1.46,-3.22,8.4,21.121
1.556,-3.192,8.1,21.131
1.133,-4.447,7.707,21.133
0.978,-4.436,7.896,21.223
0.789,-4.318,7.998,21.224
0.633,-4.087,8.227,21.226
0.544,-4.129,8.209,21.228
0.567,-4.093,8.013,21.231
0.689,-4.158,8.118,21.32
0.678,-4.396,8.176,21.323
0.789,-4.538,7.958,21.325
0.789,-4.538,7.958,21.327
0.733,-4.687,8.027,21.328
-0.021,-3.572,8.614,21.419
0.044,-3.447,8.626,21.42
0.059,-3.545,8.728,21.422
1.392,-3.344,8.6,21.432
1.42,-3.44,8.7,21.434
1.516,-3.412,8.9,21.519
1.64,-3.48,9.0,21.521
1.612,-3.384,9.0,21.54
1.708,-3.356,9.1,21.543
1.708,-3.356,9.2,21.545
1.776,-3.232,9.3,21.619
1.9,-3.3,9.4,21.621
1.9,-3.3,9.4,21.623
2.024,-3.368,9.3,21.628
2.12,-3.34,9.1,21.629
1.46,-5.234,9.44,21.72
1.42,-5.883,12.48,21.721
1.917,-5.74,11.283,21.723
2.472,-4.504,8.928,21.725
2.127,-4.182,8.473,21.726
1.623,-4.225,8.977,21.824
1.649,-5.093,8.651,21.826
1.93,-5.624,8.37,21.827
1.959,-5.82,8.341,21.829
1.72,-5.583,8.58,21.831
1.457,-5.192,9.143,21.894
1.505,-4.871,9.795,21.906
2.202,-5.814,9.698,21.916
2.224,-5.565,9.976,21.918
2.276,-5.335,9.624,21.92
2.249,-5.143,8.951,22.017
0.854,-5.299,8.497,22.051
0.79,-5.231,8.194,22.053
1.623,-5.904,7.309,22.121
1.717,-5.821,7.243,22.122
1.77,-5.613,7.126,22.124
2.011,-4.137,7.811,22.125
1.959,-4.026,7.739,22.127
1.918,-3.853,7.478,22.129
1.8,-3.7,7.1,22.223
1.728,-3.689,6.888,22.225
1.646,-3.742,6.866,22.226
1.842,-3.847,6.842,22.228
2.007,-4.116,6.867,22.23
2.275,-4.232,7.055,22.231
2.162,-5.702,6.204,22.319
2.238,-5.798,6.496,22.32
2.453,-6.091,6.583,22.322
2.57,-6.313,6.926,22.323
1.884,-7.771,5.946,22.42
1.426,-8.136,6.029,22.422
1.353,-8.872,5.759,22.424
1.4,-9.46,5.72,22.426
1.621,-9.233,5.892,22.427
1.511,-8.15,7.268,22.519
1.684,-7.983,7.447,22.52
1.554,-7.661,6.937,22.522
1.353,-7.148,7.94,22.524
1.066,-8.224,9.002,22.525
1.513,-8.677,9.662,22.619
1.442,-7.884,8.375,22.621
1.06,-7.043,7.119,22.626
1.215,-6.704,7.156,22.628
1.796,-6.646,7.712,22.63
1.211,-7.846,7.556,22.719
0.521,-7.873,7.372,22.721
0.068,-8.281,6.573,22.722
-0.698,-9.408,5.182,22.725
0.839,-10.176,3.945,22.728
0.179,-10.568,3.096,22.819
0.334,-10.451,2.947,22.821
0.436,-10.404,2.687,22.826
0.66,-10.089,2.832,22.827
0.677,-9.915,3.255,22.829
1.964,-9.878,2.732,22.944
1.821,-9.659,2.911,22.946
1.769,-9.332,3.084,22.947
1.675,-9.157,3.187,22.949
1.771,-8.874,3.085,22.95
1.828,-8.655,2.864,23.029
2.006,-8.525,2.903,23.031
2.103,-8.613,2.751,23.032
2.319,-8.417,2.91,23.034
2.393,-8.504,2.347,23.056
2.665,-8.549,2.283,23.059
2.482,-8.852,-0.915,23.118
2.763,-9.305,-1.129,23.119
3.217,-9.532,-2.292,23.122
3.373,-9.083,-2.895,23.124
2.909,-7.27,-7.383,23.222
3.27,-6.757,-9.061,23.223
3.826,-6.309,-9.448,23.225
4.135,-6.278,-9.33,23.227
4.265,-6.422,-8.87,23.228
2.684,-5.422,-9.313,23.319
2.552,-5.365,-8.539,23.321
2.544,-5.19,-8.14,23.322
2.677,-4.819,-8.325,23.324
2.77,-4.616,-8.337,23.325
3.367,-3.745,-8.965,23.42
3.59,-3.427,-9.62,23.426
3.786,-3.357,-9.429,23.428
3.798,-3.665,-8.704,23.44
4.141,-3.694,-8.418,23.443
4.433,-4.694,-7.729,23.519
4.933,-4.532,-7.256,23.52
5.433,-4.467,-7.067,23.522
6.467,-3.923,-8.768,23.524
6.267,-4.458,-8.479,23.525
4.424,-6.26,-6.432,23.619
4.768,-6.92,-5.424,23.62
4.952,-6.98,-5.536,23.626
4.94,-6.9,-5.42,23.628
5.072,-7.18,-4.696,23.631
3.236,-9.359,-1.546,23.719
3.221,-9.691,-0.598,23.72
3.412,-10.114,-0.659,23.722
2.615,-10.068,0.452,23.724
2.718,-9.537,0.692,23.725
2.472,-9.528,1.235,23.819
2.53,-9.97,0.988,23.82
2.326,-10.274,1.442,23.832
1.287,-10.479,2.244,23.835
1.518,-9.985,2.705,23.837
0.242,-8.897,4.485,23.922
1.0,-9.12,4.16,23.923
1.3,-9.08,3.94,23.925
0.742,-8.397,3.985,23.927
0.559,-7.986,4.508,24.024
0.493,-7.353,5.175,24.026
0.475,-7.636,4.512,24.027
0.714,-7.238,4.697,24.029
1.088,-7.174,4.509,24.031
-0.667,-5.633,6.267,24.119
-0.289,-4.662,6.87,24.12
0.44,-1.842,8.838,24.122
1.013,-1.047,8.979,24.124
1.342,-0.534,9.149,24.125
-0.168,-0.576,9.065,24.223
-0.399,-1.19,8.802,24.269
-0.148,-1.976,8.705,24.287
0.267,-2.433,8.533,24.289
-0.314,-2.243,8.371,24.292
-0.307,-2.167,8.187,24.374
0.811,-1.786,8.823,24.375
1.799,-2.41,8.498,24.377
1.155,-1.648,9.11,24.379
-0.013,-0.833,9.073,24.38
1.243,-1.171,8.986,24.476
0.975,-0.948,8.85,24.478
0.244,-0.562,9.088,24.479
0.291,-1.286,8.683,24.481
-0.923,-0.929,9.754,24.483
1.789,-1.556,9.889,24.544
1.33,-2.052,9.33,24.546
1.056,-1.222,9.856,24.547
0.411,-1.144,9.511,24.549
-0.089,-1.044,9.511,24.551
0.063,-0.485,9.963,24.552
1.117,-1.832,9.502,24.657
0.966,-2.036,8.996,24.658
0.719,-1.225,9.613,24.66
1.587,-0.853,9.521,24.662
2.359,-1.349,9.684,24.719
2.388,-1.223,9.627,24.72
1.689,-1.16,9.409,24.722
1.327,-0.864,9.694,24.729
1.85,-1.718,9.141,24.73
-0.252,-0.459,9.948,24.825
2.023,-1.417,9.364,24.827
3.885,-1.913,9.579,24.829
5.549,-2.345,10.176,24.835
0.856,0.161,9.437,24.837
2.342,-1.388,8.898,24.918
2.467,-1.379,9.328,24.924
0.504,-1.181,9.504,24.926
0.926,-0.77,10.026,24.928
0.993,-1.137,9.993,24.929
0.745,-1.252,9.69,25.019
0.559,-1.61,9.318,25.024
0.581,-1.99,9.162,25.026
0.887,-2.033,9.373,25.027
0.77,-2.105,9.339,25.029
0.321,-1.79,9.342,25.118
0.819,-1.91,9.638,25.12
0.894,-2.057,9.689,25.126
0.14,-1.7,9.48,25.128
0.766,-2.143,9.431,25.131
0.554,-2.157,9.309,25.222
0.558,-2.119,9.216,25.224
0.716,-2.338,9.132,25.225
0.713,-1.867,9.327,25.227
0.796,-1.938,9.192,25.228
0.834,-1.757,9.269,25.318
0.781,-1.99,9.062,25.32
0.917,-1.829,9.134,25.322
0.815,-1.848,9.23,25.323
0.694,-1.957,9.289,25.338
0.774,-1.83,9.374,25.418
0.867,-1.367,9.567,25.42
1.152,-0.941,9.652,25.422
-0.037,0.215,9.263,25.423
2.848,-1.659,10.148,25.425
3.389,-0.656,9.189,25.518
-0.048,-1.541,8.452,25.521
-2.144,0.578,9.456,25.522
0.952,-1.541,10.152,25.524
0.715,-1.526,9.815,25.618
-0.685,-0.026,9.115,25.62
1.056,-0.722,10.056,25.622
1.122,-1.089,10.022,25.623
1.319,-1.407,10.019,25.625
0.885,-1.074,9.685,25.718
0.852,-0.841,9.452,25.72
0.463,-0.385,9.063,25.722
0.063,-0.885,9.263,25.723
0.189,-1.656,9.289,25.735
0.911,-1.344,10.011,25.818
1.978,-0.811,9.878,25.82
0.73,-0.352,9.53,25.822
0.107,-0.663,8.707,25.824
1.122,-0.989,9.522,25.825
0.556,-2.022,8.956,25.918
0.67,-1.048,9.57,25.92
0.211,-0.544,9.411,25.922
1.281,-0.393,9.881,25.923
1.174,-0.93,9.874,25.925
1.27,-1.648,9.27,26.018
0.504,-1.181,9.504,26.02
0.581,-0.693,9.381,26.022
0.437,-0.315,9.737,26.023
1.411,-0.344,9.911,26.025
1.793,-0.737,9.893,26.118
1.43,-1.052,9.63,26.12
0.73,-1.352,9.13,26.126
0.463,-0.985,9.363,26.138
0.833,-0.633,9.533,26.14
1.444,-0.478,9.644,26.224
1.296,0.181,9.896,26.226
1.211,0.256,9.811,26.228
1.163,-0.085,9.563,26.229
0.856,-0.522,9.256,26.236
0.344,-0.178,9.244,26.318
1.522,-0.589,9.822,26.32
1.126,-0.27,10.026,26.322
1.967,-0.467,9.367,26.323
2.481,-0.393,11.381,26.325
0.159,-0.504,8.559,26.418
0.619,-0.107,9.619,26.419
1.319,-0.807,9.719,26.421
7.7,-2.6,10.7,26.422
-1.933,1.533,8.667,26.424
2.081,-1.493,9.181,26.518
0.978,-0.511,9.378,26.52
0.974,-0.33,9.774,26.54
1.104,-0.781,9.604,26.541
2.081,-0.593,10.081,26.543
1.241,-0.696,9.541,26.618
2.281,-1.593,9.481,26.62
1.322,-0.489,9.522,26.621
0.937,-0.315,9.237,26.623
0.881,-0.193,9.281,26.625
1.015,-0.426,9.415,26.694
1.667,0.433,10.567,26.695
2.444,-0.178,9.844,26.698
1.867,-0.467,9.467,26.7
1.174,-1.43,9.674,26.702
1.248,-0.459,8.448,26.818
1.041,-0.696,9.741,26.819
5.193,-2.137,10.793,26.821
-0.985,0.074,8.915,26.92
2.107,-0.763,9.907,26.922
1.681,-0.893,9.281,26.923
0.963,-0.485,9.063,26.943
1.744,-0.978,9.144,26.945
1.378,-0.611,9.478,26.947
1.315,-1.026,9.415,26.949
1.289,-0.856,9.589,27.047
1.159,-0.904,9.559,27.05
1.37,-0.648,9.57,27.06
1.344,-0.478,9.744,27.061
1.4,-0.6,9.7,27.063
1.281,-0.893,9.681,27.117
1.281,-0.893,9.681,27.118
1.289,-0.856,9.589,27.126
1.426,-0.77,9.526,27.223
1.433,-0.733,9.433,27.224
1.433,-0.733,9.433,27.226
1.433,-0.733,9.433,27.227
1.296,-0.819,9.496,27.229
1.252,-0.941,9.552,27.231
1.326,-0.77,9.626,27.318
1.333,-0.733,9.533,27.329
1.296,-0.819,9.496,27.331
1.204,-0.781,9.504,27.333
1.167,-0.867,9.467,27.335
1.259,-0.904,9.459,27.423
1.233,-0.733,9.633,27.428
1.363,-0.685,9.663,27.431
1.326,-0.77,9.626,27.433
1.159,-0.904,9.559,27.435
