gyro_time_list,gyro_x_list,gyro_y_list,gyro_z_list
0.0,0.2,0.0,-0.6
0.001,0.1,-0.1,0.3
0.003,-0.5,0.2,0.2
0.004,-0.1,0.0,0.1
0.006,0.2,-0.1,-0.2
0.115,0.2,-0.1,0.0
0.117,0.0,-0.0,0.1
0.119,-0.1,-0.1,0.0
0.12,-0.1,-0.1,-0.0
0.24,-0.1,-0.0,0.0
0.242,-0.0,-0.0,0.0
0.244,0.0,-0.0,-0.0
0.245,0.0,0.0,-0.0
0.247,0.0,0.0,0.0
0.248,0.0,0.0,0.0
0.336,0.0,0.0,-0.0
0.338,0.0,0.0,0.0
0.34,0.0,0.0,0.0
0.341,0.0,0.0,-0.0
0.353,-0.0,0.0,-0.0
0.419,-0.1,0.0,-0.0
0.421,-0.1,0.0,-0.0
0.422,-0.0,0.0,-0.0
0.424,-0.1,0.0,-0.0
0.425,-0.1,0.0,-0.0
0.519,-0.1,0.1,-0.0
0.521,-0.1,0.1,-0.0
0.527,-0.2,0.1,-0.1
0.529,-0.2,0.2,-0.1
0.53,-0.2,0.2,-0.1
0.615,-0.2,0.2,-0.2
0.617,-0.2,0.2,-0.2
0.618,-0.2,0.2,-0.2
0.62,-0.1,0.1,-0.2
0.627,-0.1,0.1,-0.1
0.726,-0.0,0.1,-0.1
0.728,-0.0,0.0,-0.1
0.73,-0.0,0.0,-0.0
0.752,-0.0,0.0,-0.0
0.754,-0.0,0.0,-0.0
0.814,-0.0,0.0,0.0
0.819,-0.1,0.1,0.0
0.821,-0.1,0.0,0.0
0.823,-0.0,0.0,0.0
0.824,-0.0,0.0,0.0
0.92,-0.0,0.0,0.0
0.922,-0.0,0.0,0.0
0.923,-0.1,0.0,-0.0
0.926,-0.1,0.0,0.0
0.928,-0.1,0.1,-0.0
1.02,-0.0,0.1,-0.0
1.022,-0.0,0.1,0.0
1.023,0.0,0.0,-0.0
1.025,0.0,0.0,0.0
1.026,0.0,0.0,0.0
1.13,-0.0,0.0,0.0
1.133,-0.1,0.0,0.0
1.145,-0.1,0.0,0.0
1.147,-0.1,0.0,0.0
1.149,-0.0,0.0,-0.0
1.245,-0.0,0.0,0.0
1.247,-0.0,0.0,-0.0
1.249,-0.1,0.0,-0.0
1.254,-0.1,0.0,-0.0
1.256,-0.1,0.1,0.0
1.315,-0.1,0.0,-0.0
1.317,-0.0,0.0,-0.0
1.319,-0.1,0.0,0.0
1.32,-0.1,0.0,-0.0
1.322,-0.1,0.0,-0.0
1.419,-0.1,0.0,0.0
1.42,-0.0,0.0,-0.0
1.422,-0.0,0.0,-0.0
1.424,-0.0,0.0,-0.0
1.533,-0.0,0.0,-0.0
1.535,-0.0,0.0,0.0
1.546,-0.0,0.0,-0.0
1.547,-0.0,0.0,-0.0
1.549,0.0,0.0,-0.0
1.614,0.1,-0.0,-0.0
1.616,0.0,-0.0,-0.0
1.618,-0.0,-0.0,0.0
1.62,-0.0,-0.0,0.1
1.626,-0.0,-0.0,0.2
1.719,0.1,0.0,0.3
1.721,0.2,0.1,0.4
1.726,0.2,0.2,0.4
1.727,0.2,0.3,0.5
1.729,0.1,0.5,0.6
1.815,-0.2,0.7,0.8
1.817,-0.5,0.9,0.9
1.823,-0.8,0.9,1.1
1.824,-1.4,1.0,1.4
1.826,-2.2,1.2,1.8
1.928,-2.8,1.1,1.9
1.943,-3.2,1.2,2.2
1.953,-3.2,1.2,2.4
1.955,-3.0,1.2,2.3
1.957,-2.7,0.8,2.4
2.023,-2.3,0.9,3.0
2.025,-1.8,1.2,3.6
2.026,-1.5,1.4,3.3
2.028,-1.8,1.6,3.2
2.031,-2.7,2.0,3.5
2.116,-3.7,2.5,3.5
2.117,-4.5,2.6,3.1
2.119,-4.8,2.6,3.1
2.121,-5.0,2.9,3.4
2.122,-5.2,3.1,3.2
2.248,-4.9,3.1,2.9
2.25,-3.8,3.0,2.9
2.251,-2.5,2.9,2.6
2.253,-0.9,2.7,2.3
2.254,0.5,2.6,2.0
2.335,1.5,2.5,1.6
2.337,1.9,2.2,1.2
2.339,1.7,1.8,0.9
2.341,0.6,1.5,0.8
2.343,-0.4,1.1,0.7
2.419,-1.1,0.7,0.6
2.42,-1.3,0.5,0.6
2.422,-1.2,0.3,0.4
2.427,-0.9,0.2,0.4
2.428,-0.3,0.1,0.2
2.514,0.3,0.0,0.0
2.516,0.8,-0.1,0.0
2.518,1.1,-0.1,-0.0
2.519,1.2,-0.2,-0.2
2.521,1.2,-0.3,-0.3
2.63,1.1,-0.4,-0.4
2.631,1.2,-0.5,-0.4
2.633,1.3,-0.6,-0.5
2.636,1.4,-0.6,-0.5
2.649,1.4,-0.7,-0.6
2.721,1.3,-0.8,-0.6
2.723,1.2,-1.0,-0.6
2.724,1.0,-1.0,-0.6
2.726,0.8,-1.1,-0.6
2.727,0.6,-1.2,-0.6
2.815,0.3,-1.3,-0.6
2.816,-0.0,-1.3,-0.7
2.818,-0.3,-1.0,-0.6
2.82,-0.5,-1.1,-0.6
2.821,-1.0,-1.4,-0.6
2.914,-1.3,-1.4,-0.7
2.916,-1.6,-1.2,-0.8
2.922,-1.6,-1.1,-0.9
2.923,-1.4,-0.9,-1.0
2.925,-1.0,-0.6,-1.1
3.031,-0.5,-0.4,-1.1
3.033,-0.0,-0.3,-1.1
3.035,0.2,-0.3,-1.0
3.046,0.3,-0.3,-0.8
3.114,0.4,-0.3,-0.7
3.116,0.5,-0.3,-0.5
3.121,0.5,-0.2,-0.3
3.123,0.4,-0.1,-0.2
3.125,0.2,-0.0,-0.1
3.224,-0.0,0.1,0.0
3.226,-0.2,0.1,0.1
3.227,-0.2,0.2,0.2
3.229,-0.2,0.3,0.3
3.231,-0.1,0.4,0.3
3.315,-0.0,0.4,0.4
3.316,0.1,0.5,0.5
3.318,0.0,0.6,0.5
3.319,-0.1,0.6,0.7
3.321,-0.2,0.7,0.8
3.43,-0.2,0.8,1.0
3.432,-0.3,0.9,1.1
3.439,-0.3,0.9,1.1
3.45,-0.2,0.9,1.1
3.452,-0.1,0.9,1.1
3.519,0.0,1.0,1.0
3.521,0.1,0.9,0.9
3.522,0.1,0.9,0.7
3.527,0.2,0.7,0.5
3.529,0.2,0.7,0.3
3.618,0.1,0.6,0.3
3.62,0.3,0.6,0.0
3.621,0.5,0.6,0.2
3.623,0.3,0.6,0.1
3.625,-0.1,0.6,0.2
3.718,-0.7,0.5,0.3
3.72,-1.0,0.4,0.3
3.722,-0.9,0.3,0.4
3.723,-0.3,0.3,0.3
3.725,0.7,0.3,0.2
3.823,1.5,0.3,0.1
3.825,1.7,0.4,0.1
3.839,1.5,0.4,0.2
3.84,0.9,-0.1,-0.0
3.842,0.2,-0.3,-0.2
3.914,-0.2,-0.3,-0.2
3.915,-0.3,-0.6,-0.4
3.917,-0.3,-0.9,-0.5
3.927,-0.4,-1.0,-0.6
3.931,-0.4,-1.0,-0.8
4.017,-0.2,-1.0,-1.0
4.018,0.2,-1.2,-0.8
4.02,0.4,-1.1,-0.7
4.022,0.7,-1.1,-0.4
4.027,0.8,-1.0,-0.3
4.114,0.7,-0.9,-0.2
4.115,0.5,-0.7,-0.0
4.117,0.1,-0.7,-0.0
4.122,-0.8,-0.7,0.0
4.124,-1.7,-0.7,-0.2
4.247,-2.2,-0.8,-0.4
4.272,-1.5,-0.9,-0.5
4.273,-0.5,-0.8,-0.8
4.275,0.1,-0.8,-0.9
4.276,0.5,-0.7,-1.0
4.346,0.7,-0.6,-1.0
4.35,0.7,-0.5,-0.9
4.352,0.5,-0.4,-0.8
4.354,0.1,-0.3,-0.7
4.356,-0.1,-0.2,-0.5
4.418,-0.2,-0.0,-0.3
4.42,-0.3,0.1,-0.2
4.421,-0.2,0.2,-0.0
4.423,-0.2,0.4,0.2
4.425,-0.1,0.5,0.3
4.514,-0.0,0.6,0.5
4.519,0.0,0.7,0.7
4.521,-0.0,0.8,0.8
4.522,-0.1,0.9,1.0
4.524,-0.2,1.0,1.1
4.631,-0.2,1.1,1.2
4.632,-0.3,1.1,1.3
4.634,-0.3,1.3,1.4
4.636,-0.3,1.4,1.6
4.714,-0.5,1.0,1.6
4.718,-0.8,0.5,1.5
4.72,-1.1,0.6,1.4
4.725,-1.1,0.6,1.2
4.727,-0.7,0.6,0.9
4.815,-0.3,0.5,0.7
4.816,-0.3,0.3,0.5
4.818,-0.4,0.2,0.3
4.819,-0.4,0.1,0.2
4.825,-0.6,-0.0,0.1
4.904,-0.7,-0.1,-0.0
4.906,-0.8,-0.3,-0.1
4.908,-0.7,-0.5,-0.3
4.909,-0.6,-0.7,-0.4
4.911,-0.7,-0.8,-0.5
5.015,-0.8,-0.8,-0.7
5.017,-0.8,-0.8,-0.8
5.018,-0.8,-0.8,-0.9
5.02,-0.9,-0.9,-0.9
5.12,-1.1,-0.8,-1.0
5.122,-1.1,-0.8,-0.9
5.129,-1.0,-0.8,-0.8
5.131,-1.0,-0.7,-0.7
5.133,-0.9,-0.6,-0.7
5.135,-0.7,-0.5,-0.5
5.222,-0.5,-0.3,-0.4
5.224,-0.3,-0.2,-0.3
5.226,-0.1,-0.1,-0.2
5.227,0.1,0.1,-0.0
5.229,0.3,0.2,0.1
5.327,0.4,0.4,0.3
5.329,0.5,0.5,0.5
5.331,0.5,0.6,0.6
5.332,0.6,0.7,0.7
5.345,0.6,0.8,0.8
5.418,0.6,0.8,0.9
5.42,0.6,0.8,0.9
5.422,0.6,0.7,0.9
5.423,0.5,0.6,0.9
5.425,0.4,0.7,0.8
5.519,0.6,0.8,0.8
5.521,0.3,0.2,0.7
5.524,-0.4,-0.2,0.4
5.526,-0.4,-0.0,0.4
5.527,-0.1,-0.1,0.2
5.619,0.0,-0.4,-0.0
5.621,-0.2,-0.7,-0.2
5.622,-0.6,-0.8,-0.4
5.624,-0.8,-0.7,-0.5
5.626,-0.9,-0.6,-0.5
5.725,-0.9,-0.6,-0.6
5.726,-1.0,-0.6,-0.6
5.733,-0.8,-0.5,-0.6
5.744,-0.4,-0.5,-0.6
5.745,-0.1,-0.5,-0.6
5.818,0.3,-0.5,-0.6
5.82,0.7,-0.5,-0.7
5.821,1.0,-0.4,-0.8
5.826,1.1,-0.3,-0.9
5.83,1.2,-0.3,-1.0
5.917,1.2,-0.3,-1.0
5.919,1.1,-0.3,-0.9
5.92,1.0,-0.3,-0.9
5.922,0.8,-0.3,-0.8
5.924,0.6,-0.3,-0.7
6.014,0.5,-0.2,-0.7
6.015,0.4,-0.2,-0.6
6.017,0.2,-0.1,-0.5
6.019,0.1,-0.1,-0.4
6.02,0.0,-0.0,-0.3
6.124,-0.1,0.1,-0.1
6.126,-0.2,0.1,0.0
6.14,-0.3,0.2,0.1
6.142,-0.4,0.3,0.3
6.143,-0.4,0.4,0.4
6.223,-0.4,0.6,0.6
6.225,-0.4,0.6,0.7
6.227,-0.4,0.7,0.9
6.228,-0.4,0.7,1.0
6.23,-0.4,0.9,1.1
6.318,-0.5,1.3,1.4
6.32,-0.5,0.9,1.4
6.322,-0.7,0.5,1.4
6.323,-1.0,0.7,1.3
6.414,-0.9,0.9,1.2
6.416,-0.5,0.7,1.0
6.419,-0.2,0.5,0.7
6.42,-0.1,0.4,0.6
6.427,-0.2,0.3,0.4
6.53,-0.2,0.2,0.2
6.531,-0.3,0.1,0.1
6.542,-0.5,0.1,-0.0
6.544,-0.6,-0.1,-0.1
6.545,-0.8,-0.3,-0.2
6.617,-0.9,-0.4,-0.3
6.622,-0.8,-0.5,-0.5
6.624,-0.7,-0.6,-0.6
6.625,-0.6,-0.5,-0.7
6.627,-0.4,-0.4,-0.7
6.713,-0.3,-0.4,-0.7
6.715,-0.3,-0.4,-0.7
6.718,-0.3,-0.4,-0.6
6.72,-0.2,-0.4,-0.6
6.721,-0.1,-0.4,-0.5
6.818,-0.1,-0.4,-0.4
6.82,-0.1,-0.3,-0.3
6.821,-0.1,-0.2,-0.3
6.823,-0.1,-0.2,-0.2
6.825,-0.0,-0.1,-0.1
6.932,0.0,0.1,0.0
6.946,0.1,0.2,0.2
6.948,0.1,0.3,0.3
6.95,0.2,0.4,0.5
6.951,0.3,0.6,0.6
7.017,0.3,0.7,0.8
7.018,0.4,0.7,0.8
7.02,0.3,0.6,0.8
7.021,0.4,0.6,0.7
7.023,0.6,0.5,0.6
7.115,0.9,0.2,0.3
7.116,1.1,0.1,0.1
7.123,1.1,0.3,0.0
7.124,1.0,0.4,0.1
7.126,0.6,-0.3,-0.1
7.218,0.2,-0.4,-0.1
7.22,-0.0,-0.2,-0.1
7.222,-0.0,-0.3,-0.2
7.223,-0.1,-0.6,-0.3
7.225,-0.2,-0.7,-0.5
7.323,-0.1,-0.5,-0.5
7.324,-0.1,-0.5,-0.6
7.333,-0.2,-0.6,-0.7
7.334,-0.2,-0.6,-0.6
7.337,-0.0,-0.6,-0.6
7.416,0.1,-0.6,-0.6
7.417,0.2,-0.6,-0.6
7.423,0.4,-0.6,-0.6
7.425,0.5,-0.5,-0.6
7.427,0.6,-0.5,-0.6
7.52,0.5,-0.5,-0.6
7.521,0.3,-0.5,-0.5
7.523,0.2,-0.5,-0.4
7.525,0.0,-0.4,-0.3
7.526,-0.1,-0.4,-0.2
7.627,-0.2,-0.3,-0.1
7.63,-0.2,-0.2,-0.1
7.632,-0.2,-0.1,0.0
7.634,-0.3,-0.0,0.1
7.647,-0.3,0.0,0.2
7.713,-0.3,0.1,0.3
7.715,-0.3,0.3,0.4
7.717,-0.2,0.4,0.4
7.718,-0.0,0.6,0.5
7.72,0.1,0.8,0.7
7.813,0.1,0.9,0.8
7.82,0.2,1.0,0.9
7.822,0.1,1.0,1.1
7.824,0.0,1.0,1.1
7.826,-0.0,1.0,1.1
7.917,-0.0,1.0,1.1
7.919,-0.0,1.0,0.9
7.92,-0.0,1.2,0.8
7.922,0.2,1.4,0.8
7.924,0.2,0.7,0.7
8.023,-0.2,0.3,0.5
8.032,-0.4,0.4,0.5
8.034,-0.4,0.4,0.2
8.045,-0.6,0.3,0.1
8.115,-0.2,0.3,-0.3
8.117,-0.3,0.1,-0.2
8.118,-0.3,-0.0,-0.0
8.12,-0.4,-0.1,-0.2
8.122,-0.2,-0.4,-0.1
8.219,-0.1,-0.7,-0.2
8.221,-0.3,-0.9,-0.3
8.223,-0.5,-1.0,-0.3
8.228,-0.5,-1.0,-0.3
8.229,-0.8,-1.0,-0.4
8.313,-1.2,-1.0,-0.6
8.315,-1.4,-1.0,-0.7
8.316,-1.4,-0.9,-0.7
8.318,-1.2,-0.9,-0.8
8.324,-1.0,-0.9,-0.8
8.425,-0.7,-0.8,-0.7
8.429,-0.5,-0.7,-0.7
8.431,-0.4,-0.6,-0.6
8.442,-0.2,-0.4,-0.6
8.455,-0.1,-0.2,-0.5
8.523,0.0,-0.1,-0.4
8.525,0.1,0.1,-0.2
8.527,0.2,0.3,-0.1
8.528,0.4,0.4,0.0
8.53,0.5,0.6,0.1
8.622,0.6,0.7,0.3
8.623,0.7,0.9,0.4
8.625,0.7,1.0,0.5
8.626,0.8,1.1,0.6
8.628,0.6,1.1,0.6
8.717,0.0,1.0,0.7
8.719,-1.6,0.7,0.7
8.72,-3.7,0.3,0.7
8.722,-4.8,-0.2,0.5
8.723,-4.3,0.2,0.6
8.828,-2.8,0.4,0.3
8.829,-0.9,-0.5,0.2
8.84,0.3,-0.3,0.3
8.842,0.9,-0.2,0.1
8.845,1.4,-0.2,-0.0
8.914,2.0,-0.4,-0.1
8.916,2.2,-0.3,-0.3
8.921,2.2,-0.2,-0.4
8.922,2.0,-0.2,-0.5
8.924,1.9,-0.2,-0.6
9.017,1.6,-0.2,-0.5
9.019,1.2,-0.2,-0.5
9.021,0.8,-0.3,-0.4
9.022,0.7,-0.3,-0.3
9.024,0.6,-0.3,-0.3
9.113,0.5,-0.3,-0.2
9.115,0.5,-0.3,-0.2
9.116,0.5,-0.4,-0.2
9.118,0.4,-0.4,-0.2
9.119,0.2,-0.5,-0.3
9.226,0.0,-0.5,-0.3
9.28,-0.1,-0.5,-0.3
9.282,-0.2,-0.5,-0.3
9.284,-0.3,-0.4,-0.3
9.285,-0.3,-0.3,-0.3
9.336,-0.2,-0.2,-0.3
9.338,-0.1,-0.2,-0.3
9.34,-0.1,-0.1,-0.2
9.341,-0.0,-0.0,-0.1
9.343,0.0,0.1,-0.1
9.413,0.0,0.2,0.0
9.42,-0.0,0.2,0.1
9.422,-0.1,0.4,0.2
9.423,-0.1,0.5,0.3
9.425,-0.1,0.5,0.4
9.513,-0.1,0.5,0.5
9.514,-0.2,0.6,0.6
9.516,-0.2,0.6,0.7
9.522,-0.2,0.7,0.8
9.524,-0.2,0.7,0.8
9.621,-0.1,0.7,0.9
9.629,-0.1,0.7,0.8
9.63,0.0,0.6,0.8
9.632,0.0,0.9,0.9
9.713,0.1,0.8,0.9
9.719,-0.1,0.1,0.8
9.721,-0.7,-0.0,0.8
9.722,-1.2,0.1,0.7
9.724,-1.4,0.1,0.5
9.813,-1.2,0.1,0.3
9.814,-1.1,0.1,0.1
9.816,-1.1,0.0,0.1
9.818,-1.0,-0.1,0.1
9.819,-0.8,-0.3,0.0
9.923,-0.4,-0.5,-0.0
9.926,-0.3,-0.5,-0.1
9.941,-0.3,-0.7,-0.2
9.943,-0.6,-0.9,-0.3
9.945,-1.1,-1.0,-0.4
10.013,-1.6,-1.1,-0.6
10.014,-1.8,-1.0,-0.7
10.016,-1.9,-1.0,-0.8
10.017,-1.8,-1.0,-0.9
10.019,-1.7,-0.9,-1.0
10.145,-1.5,-0.8,-0.9
10.147,-1.3,-0.7,-0.8
10.148,-1.0,-0.6,-0.7
10.15,-0.8,-0.5,-0.6
10.151,-0.5,-0.3,-0.4
10.258,-0.3,-0.1,-0.3
10.26,0.0,0.1,-0.2
10.262,0.2,0.2,-0.1
10.264,0.3,0.4,0.0
10.267,0.1,0.4,0.2
10.268,0.0,0.3,0.3
10.319,-0.2,0.3,0.5
10.321,-0.9,0.3,0.6
10.322,-1.5,0.2,0.7
10.333,-1.5,0.2,0.8
10.41,-1.3,0.2,1.0
10.412,-1.0,0.1,0.9
10.414,-0.7,0.2,1.0
10.415,-0.4,0.2,0.9
10.422,-0.4,0.2,0.8
10.518,-0.5,0.1,0.6
10.519,-0.5,0.1,0.5
10.521,-0.5,0.5,0.5
10.526,0.1,0.1,0.3
10.529,0.7,-0.6,0.3
10.612,0.5,-0.2,0.3
10.614,0.6,0.1,0.1
10.615,1.2,-0.1,0.1
10.617,1.4,-0.4,-0.0
10.622,1.2,-0.4,-0.1
10.722,1.0,-0.4,-0.3
10.724,0.8,-0.5,-0.4
10.726,0.6,-0.6,-0.4
10.742,0.1,-0.6,-0.4
10.752,-0.4,-0.6,-0.4
10.813,-0.5,-0.7,-0.4
10.815,-0.6,-0.7,-0.4
10.816,-0.6,-0.6,-0.4
10.822,-0.5,-0.5,-0.4
10.823,-0.3,-0.5,-0.4
10.912,-0.3,-0.5,-0.3
10.914,-0.3,-0.5,-0.2
10.92,-0.3,-0.5,-0.1
10.922,-0.5,-0.4,-0.1
10.923,-0.6,-0.4,-0.0
11.041,-0.6,-0.3,-0.0
11.043,-0.5,-0.2,-0.0
11.045,-0.4,-0.1,0.0
11.046,-0.2,-0.1,0.0
11.048,-0.1,-0.0,0.1
11.125,-0.0,0.1,0.1
11.127,0.0,0.1,0.2
11.138,-0.0,0.2,0.3
11.14,-0.1,0.3,0.5
11.141,-0.2,0.3,0.6
11.143,-0.3,0.3,0.7
11.209,-0.4,0.4,0.9
11.245,-0.5,0.4,1.0
11.246,-0.5,0.5,1.1
11.248,-0.5,0.5,1.1
11.319,-0.4,0.5,1.2
11.321,-0.4,0.5,1.2
11.323,-0.6,0.4,1.2
11.325,-0.8,0.4,1.1
11.412,-0.9,0.3,1.0
11.414,-0.9,0.3,0.9
11.42,-0.8,0.4,0.9
11.422,-0.8,-0.1,0.7
11.423,-0.8,-0.3,0.6
11.533,-0.9,-0.2,0.5
11.534,-0.9,-0.0,0.4
11.546,-0.8,-0.0,0.2
11.548,-0.8,-0.1,0.2
11.549,-0.8,-0.2,0.1
11.616,-0.7,-0.3,0.1
11.617,-0.7,-0.4,0.0
11.619,-0.7,-0.5,-0.1
11.62,-0.8,-0.5,-0.2
11.622,-0.9,-0.6,-0.3
11.716,-1.0,-0.6,-0.4
11.717,-1.1,-0.6,-0.5
11.722,-1.2,-0.8,-0.6
11.724,-1.3,-0.9,-0.7
11.725,-1.2,-0.9,-0.8
11.812,-1.1,-0.8,-0.9
11.814,-1.0,-0.7,-1.0
11.819,-0.8,-0.6,-1.0
11.821,-0.6,-0.5,-0.9
11.823,-0.4,-0.4,-0.8
11.926,-0.3,-0.3,-0.7
11.94,-0.2,-0.2,-0.5
11.949,-0.1,-0.1,-0.4
11.951,-0.0,0.0,-0.2
11.952,0.0,0.1,-0.1
12.019,0.1,0.2,0.0
12.021,-0.0,0.3,0.2
12.023,-0.5,0.3,0.3
12.024,-1.3,0.3,0.4
12.026,-1.9,0.1,0.4
12.115,-2.0,0.0,0.5
12.117,-1.7,0.1,0.6
12.119,-1.0,0.1,0.7
12.121,-0.1,0.2,0.7
12.122,0.6,0.3,0.6
12.245,0.8,0.4,0.7
12.251,0.9,0.4,0.6
12.253,0.7,0.4,0.7
12.255,0.4,0.3,0.7
12.256,0.1,0.3,0.6
12.327,0.1,0.3,0.6
12.329,0.3,0.2,0.6
12.331,0.5,0.2,0.5
12.333,0.6,0.3,0.5
12.336,0.8,0.7,0.6
12.42,1.2,0.2,0.4
12.422,1.4,0.1,0.5
12.424,1.2,0.3,0.5
12.426,0.9,0.3,0.2
12.431,1.0,-0.1,0.0
12.517,1.1,-0.3,-0.1
12.518,0.7,-0.4,-0.2
12.52,0.3,-0.6,-0.4
12.522,-0.1,-0.7,-0.6
12.524,-0.5,-0.7,-0.6
12.627,-1.0,-0.8,-0.7
12.63,-1.2,-0.8,-0.7
12.632,-1.3,-0.9,-0.7
12.634,-1.6,-1.0,-0.8
12.653,-1.7,-1.1,-0.8
12.719,-1.5,-1.0,-0.8
12.721,-1.2,-0.9,-0.8
12.723,-0.9,-0.8,-0.8
12.724,-0.5,-0.7,-0.8
12.726,-0.2,-0.6,-0.7
12.816,0.0,-0.5,-0.5
12.817,0.1,-0.4,-0.3
12.819,0.1,-0.3,-0.1
12.82,0.1,-0.2,0.1
12.822,0.1,-0.1,0.2
12.916,-0.0,-0.0,0.4
12.918,-0.1,0.0,0.6
12.919,-0.2,-0.0,0.7
12.921,-0.3,-0.0,0.8
13.023,-0.5,0.1,0.9
13.025,-0.5,0.1,1.0
13.035,-0.6,0.2,1.0
13.037,-0.6,0.3,1.1
13.049,-0.6,0.4,1.1
13.112,-0.5,0.4,1.2
13.113,-0.5,0.5,1.3
13.115,-0.4,0.6,1.3
13.117,-0.4,0.7,1.4
13.122,-0.4,0.7,1.4
13.231,-0.4,0.7,1.4
13.232,-0.4,0.7,1.4
13.234,-0.5,0.6,1.3
13.235,-0.5,0.5,1.1
13.237,-0.5,0.4,0.9
13.318,-0.5,0.4,0.7
13.319,-0.6,0.7,0.6
13.321,-0.8,0.1,0.4
13.322,-1.4,-0.7,0.2
13.324,-2.0,-0.5,0.1
13.429,-2.3,-0.0,-0.2
13.432,-2.2,-0.1,-0.4
13.434,-2.1,-0.4,-0.5
13.446,-2.0,-0.4,-0.6
13.448,-1.7,-0.2,-0.7
13.512,-1.3,-0.3,-0.8
13.513,-0.9,-0.5,-0.8
13.515,-0.6,-0.5,-0.8
13.516,-0.3,-0.5,-0.8
13.518,0.1,-0.7,-0.8
13.621,0.1,-0.8,-0.7
13.623,-0.1,-0.8,-0.7
13.625,-0.1,-0.8,-0.7
13.626,-0.2,-0.8,-0.5
13.631,-0.6,-0.8,-0.5
13.716,-1.1,-0.7,-0.5
13.718,-1.2,-0.5,-0.3
13.719,-1.3,-0.4,-0.1
13.721,-1.4,-0.4,0.1
13.723,-1.3,-0.3,0.2
13.821,-1.2,-0.2,0.3
13.823,-0.9,-0.1,0.4
13.837,-0.6,0.0,0.5
13.838,-0.4,0.1,0.6
13.84,-0.3,0.1,0.6
13.924,-0.1,0.2,0.7
13.926,-0.1,0.3,0.7
13.927,-0.2,0.4,0.7
13.929,-0.2,0.4,0.7
13.931,-0.2,0.4,0.7
14.012,0.0,0.4,0.6
14.024,0.2,0.4,0.6
14.025,0.3,0.4,0.6
14.027,0.1,0.4,0.6
14.028,-0.0,0.3,0.6
14.112,-0.1,0.3,0.6
14.113,-0.4,0.3,0.6
14.115,-0.9,0.2,0.5
14.12,-0.9,0.4,0.6
14.122,-0.9,0.4,0.6
14.229,-1.0,-0.3,0.4
14.243,-0.8,-0.4,0.4
14.244,-0.5,-0.1,0.2
14.254,-0.2,-0.2,0.0
14.256,-0.1,-0.5,-0.2
14.319,-0.0,-0.5,-0.4
14.32,-0.1,-0.5,-0.5
14.322,-0.3,-0.6,-0.6
14.324,-0.4,-0.7,-0.6
14.325,-0.0,-0.6,-0.6
14.412,0.3,-0.6,-0.5
14.413,0.4,-0.6,-0.4
14.415,0.3,-0.6,-0.3
14.416,-0.3,-0.6,-0.4
14.418,-1.0,-0.6,-0.3
14.515,-0.9,-0.6,-0.4
14.519,-0.4,-0.5,-0.5
14.52,-0.1,-0.5,-0.5
14.527,-0.0,-0.5,-0.5
14.529,0.1,-0.6,-0.4
14.625,-0.0,-0.6,-0.3
14.626,-0.3,-0.6,-0.2
14.628,-0.6,-0.6,-0.1
14.629,-0.8,-0.5,-0.0
14.715,-0.8,-0.4,0.1
14.716,-0.7,-0.3,0.1
14.718,-0.5,-0.2,0.2
14.723,-0.4,-0.1,0.3
14.724,-0.2,0.1,0.4
14.812,-0.1,0.2,0.5
14.814,-0.2,0.2,0.6
14.815,-0.2,0.3,0.8
14.817,-0.2,0.4,0.9
14.818,-0.3,0.4,0.9
14.926,-0.3,0.5,1.0
14.927,-0.2,0.5,1.0
14.929,-0.2,0.5,1.0
14.93,-0.2,0.6,1.0
14.932,-0.3,0.6,1.0
15.015,-0.2,0.6,1.0
15.017,-0.2,0.6,0.9
15.021,-0.3,0.5,0.9
15.022,-0.4,0.4,0.8
15.024,-0.5,0.3,0.7
15.115,-0.7,0.4,0.6
15.116,-1.0,0.8,0.7
15.118,-1.3,-0.0,0.6
15.12,-1.7,-0.8,0.4
15.121,-2.1,-0.6,0.4
15.223,-2.3,-0.4,0.2
15.224,-2.1,-0.5,-0.1
15.226,-1.9,-0.6,-0.3
15.227,-1.6,-0.5,-0.4
15.229,-1.1,-0.4,-0.5
15.323,-0.7,-0.5,-0.5
15.325,-0.5,-0.7,-0.5
15.327,-0.6,-0.9,-0.5
15.329,-0.8,-0.9,-0.5
15.343,-1.0,-1.0,-0.5
15.409,-1.2,-0.9,-0.6
15.411,-1.3,-0.8,-0.7
15.412,-1.3,-0.7,-0.7
15.417,-1.2,-0.6,-0.6
15.419,-0.9,-0.5,-0.6
15.511,-0.7,-0.4,-0.5
15.513,-0.6,-0.4,-0.3
15.514,-0.5,-0.2,-0.1
15.52,-0.4,-0.1,0.1
15.522,-0.4,0.0,0.3
15.611,-0.4,0.1,0.4
15.612,-0.4,0.2,0.5
15.614,-0.3,0.3,0.5
15.616,-0.2,0.4,0.6
15.617,0.0,0.5,0.7
15.725,0.3,0.5,0.8
15.733,0.7,0.6,0.7
15.735,1.1,0.6,0.8
15.746,1.3,0.6,0.8
15.748,1.4,0.6,0.7
15.815,1.3,0.5,0.6
15.816,1.3,0.5,0.6
15.818,1.1,0.4,0.5
15.82,0.8,0.3,0.4
15.824,0.9,0.2,0.4
15.914,0.7,0.1,0.2
15.916,0.3,0.0,0.2
15.921,-0.1,0.2,0.1
15.922,-0.3,0.3,0.1
15.924,-0.4,-0.4,-0.1
16.012,-0.5,-0.3,-0.1
16.013,-0.4,-0.0,-0.1
16.015,-0.2,-0.4,-0.3
16.017,-0.1,-0.6,-0.5
16.018,-0.2,-0.6,-0.6
16.129,-0.1,-0.6,-0.8
16.132,0.1,-0.6,-0.8
16.143,0.2,-0.6,-0.9
16.145,0.3,-0.5,-0.8
16.147,0.1,-0.5,-0.8
16.241,-0.4,-0.4,-0.8
16.243,-0.7,-0.5,-0.8
16.245,-0.6,-0.4,-0.7
16.252,-0.4,-0.3,-0.7
16.318,-0.0,-0.3,-0.7
16.319,0.4,-0.3,-0.7
16.321,0.7,-0.2,-0.6
16.322,0.8,-0.2,-0.6
16.324,0.8,-0.1,-0.4
16.411,0.5,-0.1,-0.4
16.417,0.5,-0.0,-0.3
16.418,0.5,0.0,-0.2
16.42,0.4,0.1,-0.1
16.422,0.5,0.2,0.0
16.523,0.5,0.2,0.1
16.533,0.4,0.3,0.2
16.544,0.4,0.3,0.3
16.546,0.3,0.3,0.4
16.548,0.2,0.3,0.4
16.616,0.0,0.4,0.5
16.618,-0.0,0.5,0.5
16.62,-0.1,0.5,0.6
16.622,-0.1,0.5,0.7
16.624,-0.2,0.6,0.8
16.716,-0.2,0.6,0.9
16.718,-0.3,0.6,1.0
16.72,-0.3,0.6,1.0
16.721,-0.3,0.6,1.0
16.723,-0.3,0.4,1.0
16.816,-0.4,0.6,1.0
16.817,-0.5,0.7,1.0
16.819,-0.7,0.1,0.8
16.824,-1.0,-0.2,0.7
16.826,-1.4,0.0,0.6
16.926,-1.5,-0.0,0.4
16.94,-1.4,-0.4,0.2
16.943,-1.4,-0.5,0.0
16.954,-1.3,-0.3,-0.1
16.955,-0.9,-0.3,-0.3
17.014,-0.6,-0.4,-0.4
17.016,-0.4,-0.6,-0.5
17.021,-0.3,-0.7,-0.6
17.022,-0.5,-0.8,-0.7
17.024,-0.7,-1.0,-0.8
17.109,-1.0,-1.0,-0.9
17.111,-1.2,-0.9,-1.0
17.112,-1.3,-0.9,-1.0
17.114,-1.2,-0.9,-1.0
17.115,-1.1,-0.8,-0.9
17.219,-1.0,-0.7,-0.8
17.221,-0.8,-0.7,-0.8
17.222,-0.6,-0.6,-0.8
17.224,-0.3,-0.4,-0.8
17.226,0.0,-0.2,-0.7
17.329,0.2,-0.1,-0.6
17.337,0.4,0.0,-0.4
17.339,0.5,0.3,-0.2
17.341,0.6,0.4,-0.1
17.342,0.8,0.5,0.1
17.415,1.0,0.7,0.2
17.417,1.2,0.9,0.4
17.419,1.4,1.0,0.5
17.421,1.5,1.1,0.6
17.422,1.6,1.3,0.7
17.516,1.7,1.3,0.8
17.519,1.8,1.4,0.8
17.521,1.8,1.3,0.9
17.526,1.6,1.2,0.9
17.528,1.4,1.1,0.8
17.622,1.1,1.0,0.7
17.624,0.6,1.1,0.8
17.626,-0.5,0.7,0.5
17.628,-1.1,0.4,0.3
17.646,-1.0,0.4,0.3
17.712,-0.7,0.3,0.2
17.714,-0.3,-0.0,-0.1
17.716,0.1,-0.2,-0.2
17.721,0.5,-0.2,-0.4
17.722,0.8,-0.1,-0.5
17.815,1.1,-0.1,-0.5
17.817,1.3,-0.1,-0.5
17.819,1.3,-0.2,-0.5
17.82,1.8,-0.3,-0.4
17.822,2.7,-0.3,-0.5
17.91,3.7,-0.3,-0.4
17.912,3.1,-0.4,-0.2
17.918,2.4,-0.5,-0.5
17.92,1.2,-0.6,-0.2
18.029,-0.1,-0.6,-0.3
18.03,-1.2,-0.9,-0.1
18.032,-2.4,-0.9,-0.2
18.034,-2.9,-1.0,-0.4
18.045,-2.3,-1.1,-0.5
18.115,-1.8,-1.2,-0.3
18.117,-1.6,-1.1,-0.4
18.123,-1.3,-1.0,-0.4
18.124,-0.8,-0.9,-0.3
18.126,-0.6,-0.8,-0.2
18.214,-0.6,-0.6,-0.2
18.219,-0.6,-0.5,-0.1
18.22,-0.6,-0.3,0.0
18.222,-0.5,-0.1,0.1
18.223,-0.4,0.1,0.3
18.315,-0.4,0.2,0.4
18.317,-0.3,0.4,0.6
18.319,-0.2,0.5,0.7
18.321,-0.1,0.6,0.8
18.324,-0.2,0.7,1.0
18.427,-0.2,0.8,1.1
18.429,-0.3,0.7,1.1
18.436,-0.4,1.2,1.2
18.447,-0.5,1.2,1.3
18.448,-0.8,0.7,1.2
18.515,-1.3,0.5,1.2
18.517,-1.7,0.6,1.1
18.518,-1.5,0.6,0.8
18.52,-1.0,0.6,0.5
18.531,-0.5,0.7,0.3
18.611,0.1,0.8,0.1
18.612,0.3,0.6,0.1
18.614,0.3,0.4,-0.1
18.616,0.1,0.2,-0.1
18.622,0.0,-0.1,-0.1
18.708,-0.3,-0.4,-0.0
18.71,-0.7,-0.6,-0.1
18.711,-1.3,-0.5,-0.1
18.717,-1.6,-0.5,-0.3
18.719,-1.6,-0.4,-0.4
18.822,-1.3,-0.4,-0.4
18.824,-0.8,-0.3,-0.4
18.839,-0.3,-0.3,-0.4
18.841,0.2,-0.3,-0.4
18.851,0.6,-0.3,-0.3
18.91,0.7,-0.2,-0.2
18.912,0.7,-0.2,-0.2
18.913,0.7,-0.1,-0.1
18.915,0.7,-0.0,-0.1
18.917,0.7,0.0,-0.0
19.01,0.7,0.1,0.0
19.012,0.4,0.2,0.0
19.018,0.1,0.2,0.0
19.02,0.2,0.2,0.1
19.021,0.2,0.2,0.1
19.111,0.1,0.2,0.1
19.113,0.2,0.2,0.1
19.114,0.2,0.2,0.1
19.116,0.2,0.2,0.1
19.117,0.2,0.2,0.1
19.224,0.2,0.2,0.1
19.235,0.2,0.1,0.1
19.236,0.0,0.3,0.1
19.245,0.1,0.6,0.2
19.247,0.3,0.1,0.1
19.315,0.2,-0.0,0.2
19.317,0.3,0.1,0.2
19.322,0.3,-0.2,0.1
19.324,0.5,-0.4,-0.1
19.325,0.5,-0.6,-0.2
19.413,0.4,-0.6,-0.4
19.415,0.4,-0.6,-0.5
19.417,0.3,-0.7,-0.5
19.419,0.1,-0.7,-0.5
19.424,-0.3,-0.6,-0.5
19.511,-0.7,-0.6,-0.5
19.517,-1.0,-0.7,-0.5
19.519,-0.8,-0.6,-0.4
19.52,-0.6,-0.6,-0.4
19.625,-0.2,-0.6,-0.4
19.645,0.3,-0.6,-0.3
19.647,0.6,-0.5,-0.3
19.65,0.6,-0.5,-0.3
19.653,0.6,-0.5,-0.3
19.71,0.4,-0.4,-0.3
19.712,0.3,-0.4,-0.3
19.718,0.2,-0.4,-0.2
19.72,0.1,-0.3,-0.2
19.721,-0.0,-0.3,-0.2
19.817,-0.1,-0.2,-0.1
19.818,-0.2,-0.2,-0.1
19.82,-0.3,-0.1,-0.0
19.821,-0.5,-0.0,0.0
19.823,-0.5,0.1,0.1
19.925,-0.5,0.2,0.2
19.927,-0.4,0.3,0.3
19.929,-0.5,0.4,0.5
19.931,-0.5,0.5,0.6
19.934,-0.5,0.6,0.7
20.01,-0.5,0.7,0.8
20.015,-0.5,0.7,0.9
20.017,-0.4,0.8,1.0
20.018,-0.4,0.7,1.0
20.02,-0.5,1.0,1.1
20.117,-0.5,1.4,1.2
20.119,-0.7,0.6,1.2
20.12,-1.3,0.2,1.2
20.122,-1.7,0.5,1.3
20.123,-1.9,0.4,1.1
20.215,-1.6,0.2,0.8
20.221,-1.4,0.3,0.6
20.224,-1.2,0.4,0.4
20.226,-0.6,0.3,0.1
20.228,-0.1,0.0,-0.0
20.321,0.1,-0.3,-0.1
20.323,-0.2,-0.4,-0.2
20.332,-0.6,-0.6,-0.3
20.333,-1.0,-0.7,-0.3
20.345,-1.3,-0.7,-0.4
20.413,-1.4,-0.8,-0.5
20.414,-1.4,-0.8,-0.5
20.416,-1.4,-0.8,-0.5
20.418,-1.3,-0.8,-0.5
20.419,-1.0,-0.7,-0.6
20.516,-0.8,-0.6,-0.5
20.521,-0.5,-0.5,-0.4
20.523,-0.1,-0.4,-0.3
20.527,0.0,-0.3,-0.2
20.529,-0.0,-0.2,-0.1
20.61,-0.1,-0.0,0.1
20.612,-0.3,0.2,0.2
20.613,-0.4,0.2,0.3
20.615,-0.6,0.3,0.3
20.616,-0.6,0.4,0.4
20.725,-0.4,0.4,0.4
20.735,-0.0,0.4,0.5
20.737,0.5,0.5,0.5
20.749,0.8,0.5,0.6
20.751,0.9,0.5,0.6
20.815,0.9,0.4,0.6
20.817,0.6,0.4,0.5
20.819,0.1,0.3,0.5
20.821,-0.0,0.2,0.3
20.823,-0.0,0.1,0.2
20.91,-0.2,0.5,0.2
20.911,-0.3,0.5,0.2
20.913,-0.4,-0.2,0.2
20.915,-0.6,-0.5,0.1
20.916,-0.9,-0.2,0.1
21.01,-0.9,-0.4,-0.1
21.011,-0.9,-0.6,-0.3
21.013,-0.9,-0.6,-0.5
21.014,-0.9,-0.6,-0.5
21.02,-0.6,-0.7,-0.6
21.126,-0.4,-0.8,-0.5
21.128,-0.2,-0.7,-0.5
21.14,0.1,-0.7,-0.5
21.141,-0.1,-0.6,-0.5
21.211,-1.1,-0.5,-0.5
21.212,-1.3,-0.5,-0.7
21.22,-0.9,-0.5,-0.6
21.222,-0.7,-0.5,-0.6
21.223,-0.5,-0.5,-0.6
21.314,-0.3,-0.6,-0.5
21.315,-0.1,-0.5,-0.4
21.317,-0.2,-0.5,-0.2
21.319,-0.2,-0.4,-0.1
21.32,-0.4,-0.3,0.1
21.415,-0.5,-0.2,0.3
21.417,-0.4,-0.1,0.4
21.418,-0.4,0.0,0.5
21.42,-0.3,0.1,0.6
21.421,-0.1,0.2,0.7
21.522,0.0,0.3,0.7
21.524,0.1,0.4,0.8
21.543,0.2,0.5,0.9
21.545,0.2,0.5,0.9
21.546,0.2,0.6,0.9
21.613,0.1,0.6,1.0
21.617,0.1,0.6,1.0
21.619,-0.0,0.6,1.0
21.621,-0.2,0.6,1.0
21.622,-0.3,0.5,1.0
21.709,-0.4,0.4,0.9
21.711,-0.5,0.4,0.8
21.713,-0.6,0.8,0.8
21.722,-0.7,0.3,0.7
21.724,-0.9,-0.2,0.6
21.809,-1.3,-0.1,0.5
21.811,-1.4,0.1,0.3
21.813,-1.3,-0.1,0.1
21.814,-1.1,-0.3,-0.2
21.816,-0.8,-0.2,-0.4
21.923,-0.2,0.0,-0.5
21.938,0.2,-0.1,-0.6
21.94,0.3,-0.4,-0.7
21.941,0.3,-0.6,-0.7
21.943,-0.1,-0.7,-0.8
22.012,-0.6,-0.9,-0.9
22.014,-0.9,-0.9,-0.9
22.016,-0.9,-0.8,-1.0
22.017,-0.9,-0.7,-1.1
22.019,-1.0,-0.7,-1.1
22.113,-0.8,-0.6,-1.1
22.115,-0.6,-0.4,-0.9
22.12,-0.4,-0.3,-0.8
22.122,-0.2,-0.2,-0.6
22.125,0.2,-0.1,-0.5
22.21,0.5,0.0,-0.3
22.249,0.7,0.2,-0.1
22.25,0.7,0.3,-0.0
22.252,0.7,0.4,0.1
22.254,0.7,0.5,0.2
22.329,0.8,0.6,0.3
22.331,1.0,0.7,0.5
22.332,1.1,0.8,0.6
22.334,1.1,0.8,0.7
22.34,1.0,0.9,0.7
22.415,0.9,0.9,0.8
22.417,0.8,0.8,0.8
22.419,0.5,0.8,0.8
22.42,0.6,0.7,0.7
22.425,1.1,0.7,0.6
22.514,1.5,0.7,0.6
22.516,1.4,0.6,0.4
22.517,1.1,0.4,0.3
22.519,0.7,0.4,0.1
22.521,0.3,0.9,0.2
22.619,0.0,0.1,0.1
22.621,-0.7,-0.4,0.1
22.63,-1.2,-0.4,0.0
22.632,-1.5,-0.5,-0.2
22.644,-1.6,-0.9,-0.4
22.716,-1.9,-1.0,-0.7
22.717,-2.0,-0.9,-0.9
22.719,-1.9,-1.0,-1.0
22.72,-1.6,-1.1,-1.1
22.722,-0.7,-1.0,-1.0
22.809,-0.2,-1.0,-0.9
22.811,-0.5,-0.9,-0.9
22.813,-1.0,-0.9,-0.9
22.814,-1.2,-0.9,-0.8
22.911,-1.4,-0.9,-0.8
22.912,-1.2,-0.8,-0.8
22.919,-1.0,-0.8,-0.8
22.921,-0.8,-0.9,-0.7
22.922,-0.6,-0.9,-0.6
23.019,-0.5,-1.0,-0.5
23.02,-0.7,-1.0,-0.3
23.022,-0.9,-1.1,-0.2
23.031,-1.1,-1.1,-0.0
23.041,-1.2,-1.0,0.2
23.113,-1.2,-1.0,0.4
23.115,-1.3,-1.0,0.6
23.118,-1.3,-0.9,0.8
23.12,-1.3,-0.8,1.1
23.123,-1.3,-0.7,1.3
23.252,-1.4,-0.6,1.6
23.253,-1.5,-0.5,1.8
23.255,-1.5,-0.5,2.0
23.257,-1.5,-0.4,2.1
23.258,-1.6,-0.4,2.3
23.313,-1.8,-0.4,2.3
23.315,-1.9,-0.4,2.3
23.317,-2.0,-0.3,2.3
23.318,-2.1,-0.2,2.3
23.32,-2.1,-0.2,2.2
23.427,-2.1,-0.3,2.2
23.432,-2.3,-0.4,2.1
23.434,-2.3,-0.4,1.9
23.445,-2.1,-0.3,1.6
23.446,-1.8,-0.2,1.3
23.509,-1.4,-0.2,1.0
23.511,-1.0,-0.2,0.8
23.512,-0.8,-0.2,0.6
23.514,-0.7,-0.3,0.4
23.519,-0.7,-0.4,0.3
23.607,-0.9,-0.4,0.2
23.613,-1.1,-0.4,0.2
23.614,-1.5,-0.4,0.1
23.616,-1.9,-0.5,0.1
23.618,-2.2,-0.6,-0.0
23.709,-2.4,-0.7,-0.1
23.711,-2.6,-0.8,-0.3
23.713,-2.8,-0.8,-0.4
23.714,-2.8,-0.9,-0.6
23.716,-2.4,-1.0,-0.9
23.829,-1.8,-1.1,-1.0
23.83,-1.3,-1.1,-1.2
23.841,-0.7,-1.1,-1.4
23.843,0.3,-1.1,-1.5
23.845,1.1,-1.0,-1.5
23.917,1.8,-0.8,-1.6
23.919,2.9,-0.9,-1.6
23.923,3.5,-1.2,-1.4
23.925,3.2,-1.4,-1.4
23.927,2.5,-1.3,-1.5
24.009,2.3,-1.3,-1.5
24.011,2.4,-1.2,-1.5
24.013,2.8,-1.3,-1.6
24.014,3.1,-1.3,-1.5
24.016,2.9,-1.4,-1.4
24.109,2.7,-1.4,-1.4
24.111,2.5,-1.4,-1.3
24.117,2.4,-1.6,-1.1
24.118,2.1,-1.7,-1.1
24.12,2.1,-1.7,-1.1
24.244,2.0,-1.7,-1.0
24.256,2.0,-1.6,-0.9
24.258,2.1,-1.6,-0.8
24.26,2.2,-1.6,-0.7
24.27,2.2,-1.5,-0.7
24.362,2.2,-1.4,-0.4
24.364,1.6,-1.5,-0.4
24.366,1.3,-1.4,-0.4
24.368,1.0,-1.3,-0.2
24.37,0.9,-1.2,-0.1
24.447,0.6,-1.0,0.1
24.449,0.5,-1.0,0.0
24.45,0.5,-0.9,-0.0
24.452,0.7,-0.8,-0.0
24.484,0.8,-0.6,0.0
24.54,0.8,-0.4,-0.0
24.546,0.6,-0.4,-0.0
24.548,0.4,-0.4,-0.1
24.549,0.2,-0.3,-0.1
24.629,-0.0,-0.7,-0.6
24.64,-0.1,-0.9,-0.6
24.642,-0.2,-0.6,-0.6
24.644,-0.1,-0.3,-0.4
24.645,-0.1,0.8,0.4
24.701,-0.3,0.2,0.5
24.703,-0.5,0.4,0.5
24.704,-0.5,-0.1,-0.2
24.706,-0.5,-0.3,-0.5
24.707,-0.6,-0.3,-0.4
24.806,-0.4,-0.0,-0.4
24.808,-0.4,0.2,-0.5
24.809,-0.3,0.1,-0.5
24.811,-0.2,-0.0,-0.4
24.904,-0.0,0.0,-0.2
24.906,0.0,0.2,-0.1
24.909,0.0,0.4,-0.2
24.915,-0.0,0.6,-0.4
24.917,-0.1,0.5,-0.2
24.919,-0.1,0.5,0.0
25.004,-0.1,0.2,0.3
25.006,0.1,0.1,0.7
25.011,0.0,0.2,1.1
25.013,-0.3,-0.0,1.4
25.122,-0.1,-0.3,1.2
25.127,0.7,-0.7,-0.3
25.128,0.7,0.6,-1.2
25.13,-0.4,-0.3,0.1
25.131,-0.6,0.2,-0.0
25.133,-0.5,0.0,0.3
25.22,-0.5,0.1,0.2
25.226,-0.5,-0.2,0.0
25.227,-0.4,-0.2,0.0
25.229,-0.0,-0.1,0.1
25.231,0.2,-0.1,0.2
25.317,0.1,-0.2,0.1
25.319,-0.0,-0.2,0.1
25.32,-0.1,-0.1,0.1
25.322,-0.0,-0.1,0.1
25.333,0.0,-0.1,0.1
25.416,0.0,-0.1,0.1
25.418,0.1,-0.1,0.1
25.419,0.1,-0.0,0.1
25.421,0.0,0.0,0.1
25.422,0.0,0.0,0.1
25.509,0.0,0.0,0.0
25.511,0.1,0.0,0.0
25.512,0.2,0.1,0.0
25.514,0.3,0.1,-0.0
25.515,0.3,0.1,-0.1
25.609,0.4,0.0,-0.1
25.611,0.4,0.0,-0.2
25.618,0.5,0.0,-0.3
25.619,0.8,0.0,-0.3
25.621,0.9,0.0,-0.3
25.719,0.7,0.0,-0.3
25.722,0.5,-0.0,-0.4
25.731,0.4,-0.0,-0.4
25.742,0.2,-0.1,0.0
25.744,-0.2,-0.4,0.5
25.784,0.1,-0.4,-0.5
25.789,0.4,-0.3,-0.3
25.79,-0.4,0.2,-0.1
25.799,-0.3,0.2,-0.3
25.801,-0.5,0.3,0.2
25.91,0.0,0.4,0.4
25.911,-0.1,0.2,-0.0
25.913,-0.2,0.1,-0.2
26.013,-0.3,0.1,-0.0
26.015,-0.1,0.0,0.1
26.017,0.1,0.0,0.1
26.018,0.3,0.1,-0.1
26.02,0.3,0.0,-0.2
26.027,0.2,-0.3,0.3
26.129,0.2,-0.5,0.3
26.131,0.4,-0.3,-0.5
26.133,0.3,-0.3,-0.7
26.145,0.0,-0.7,-0.1
26.153,-0.4,0.4,0.1
26.155,-0.1,0.1,0.2
26.246,0.1,-0.2,-0.1
26.248,-0.0,-0.1,-0.0
26.249,-0.0,0.1,0.1
26.251,0.0,0.0,0.0
26.313,0.0,-0.0,-0.0
26.315,0.0,0.0,0.0
26.316,-0.0,-0.0,0.0
26.321,-0.1,-0.0,0.0
26.323,-0.1,-0.1,0.1
26.412,-0.1,-0.1,0.1
26.413,-0.2,-0.1,0.1
26.415,-0.1,-0.1,0.0
26.416,-0.1,-0.1,0.1
26.419,-0.1,-0.1,0.1
