gyro_time_list,gyro_x_list,gyro_y_list,gyro_z_list
0.0,0.2,-0.3,0.1
0.016,-0.2,0.5,0.2
0.018,-0.4,0.5,0.2
0.02,-0.3,0.4,0.1
0.021,-0.1,-0.1,0.1
0.121,-0.2,0.1,0.0
0.123,-0.2,0.1,0.1
0.124,-0.1,0.0,0.1
0.229,-0.0,0.1,0.1
0.231,0.1,0.1,0.1
0.233,0.1,0.0,0.1
0.234,0.1,0.1,0.1
0.236,0.1,0.1,0.1
0.237,0.0,0.1,0.1
0.311,-0.0,0.1,0.1
0.313,-0.1,0.0,0.1
0.315,-0.1,0.0,0.1
0.317,-0.1,0.0,0.1
0.325,-0.0,0.0,0.1
0.392,-0.0,-0.0,0.1
0.396,-0.1,-0.0,0.1
0.398,-0.1,-0.0,0.1
0.4,-0.1,0.0,0.1
0.5,-0.1,0.0,0.2
0.501,-0.1,0.0,0.2
0.508,-0.1,0.1,0.2
0.51,-0.1,0.1,0.2
0.512,-0.1,0.1,0.2
0.626,-0.1,0.1,0.2
0.627,-0.1,0.1,0.2
0.629,-0.1,0.1,0.2
0.631,-0.1,0.1,0.2
0.632,-0.1,0.1,0.2
0.747,-0.1,0.1,0.2
0.749,-0.1,0.1,0.2
0.752,-0.1,0.1,0.2
0.754,-0.1,0.1,0.2
0.756,-0.0,0.0,0.2
0.768,-0.0,0.0,0.2
0.826,-0.0,-0.0,0.2
0.827,-0.0,-0.0,0.2
0.829,-0.0,-0.0,0.2
0.83,-0.1,0.0,0.2
0.832,-0.1,0.1,0.2
0.924,-0.2,0.1,0.2
0.925,-0.2,0.2,0.3
0.927,-0.3,0.2,0.3
0.929,-0.3,0.2,0.3
0.93,-0.4,0.2,0.3
1.023,-0.5,0.3,0.4
1.024,-0.6,0.4,0.4
1.026,-0.6,0.5,0.5
1.028,-0.7,0.6,0.6
1.033,-0.7,0.8,0.7
1.135,-0.7,0.9,0.7
1.137,-0.8,1.2,0.8
1.139,-0.9,1.5,0.8
1.15,-0.9,2.0,0.9
1.199,-0.8,2.3,0.9
1.21,-0.4,2.6,0.8
1.212,-0.2,2.8,0.9
1.213,-0.6,3.0,0.8
1.216,-0.9,3.3,0.8
1.218,-1.0,3.6,1.0
1.292,-1.0,3.9,1.1
1.294,-1.2,4.0,1.2
1.296,-1.4,4.3,1.4
1.397,-1.6,4.4,1.5
1.398,-2.0,4.4,1.7
1.405,-2.3,4.2,2.0
1.407,-2.5,3.8,2.0
1.408,-2.6,3.4,2.0
1.516,-2.5,2.9,1.7
1.518,-2.1,2.4,1.4
1.52,-1.4,1.9,1.0
1.521,-0.9,1.2,0.5
1.558,-1.1,0.7,0.0
1.625,-1.8,0.5,-0.4
1.626,-2.5,0.3,-0.6
1.632,-3.1,0.0,-0.7
1.634,-3.6,-0.1,-0.7
1.636,-4.0,-0.2,-0.7
1.714,-4.3,-0.3,-0.7
1.715,-4.3,-0.4,-0.6
1.717,-4.0,-0.5,-0.4
1.722,-3.4,-0.5,-0.2
1.723,-2.7,-0.5,-0.0
1.725,-2.0,-0.4,0.1
1.793,-1.3,-0.3,0.1
1.799,-0.6,-0.1,0.1
1.8,-0.1,0.1,0.1
1.802,0.4,0.3,0.0
1.906,0.7,0.4,-0.1
1.908,0.9,0.4,-0.3
1.909,1.1,0.3,-0.4
1.92,1.0,0.2,-0.6
1.922,0.9,0.1,-0.7
2.032,0.7,-0.1,-0.9
2.034,0.5,-0.2,-1.0
2.035,0.6,-0.2,-1.0
2.037,0.7,-0.3,-1.0
2.038,0.9,-0.3,-0.9
2.124,1.3,-0.4,-0.8
2.126,2.0,-0.4,-0.9
2.127,2.4,-0.4,-0.7
2.129,2.1,-0.3,-0.6
2.135,1.5,-0.2,-0.4
2.136,0.9,-0.0,-0.2
2.235,0.1,0.1,0.0
2.237,-0.5,0.1,0.1
2.239,-1.0,0.2,0.1
2.249,-1.3,0.3,0.1
2.25,-1.2,0.2,0.1
2.324,-1.1,0.2,0.1
2.335,-1.1,0.2,0.1
2.341,-0.8,0.2,0.2
2.342,-0.6,0.2,0.2
2.344,-0.3,0.2,0.2
2.422,-0.1,0.1,0.2
2.423,0.1,0.2,0.2
2.425,0.2,0.2,0.2
2.43,0.2,0.2,0.1
2.431,0.2,0.2,0.1
2.5,0.1,0.2,0.0
2.502,0.1,0.3,0.0
2.504,0.0,0.4,0.1
2.506,0.1,0.4,0.1
2.507,0.1,0.5,0.2
2.603,0.2,0.5,0.2
2.605,0.3,0.4,0.3
2.606,0.4,0.4,0.3
2.608,0.4,0.4,0.3
2.717,0.4,0.4,0.2
2.731,0.4,0.3,0.2
2.733,0.5,0.2,0.1
2.734,0.6,0.2,0.0
2.736,0.8,0.1,-0.0
2.795,0.8,0.1,-0.1
2.797,0.8,0.1,-0.1
2.799,0.7,0.1,-0.2
2.8,0.7,0.1,-0.2
2.802,0.5,0.0,-0.2
2.924,0.4,0.0,-0.1
2.926,0.3,-0.0,-0.1
2.927,0.3,-0.1,-0.1
2.929,0.3,-0.1,-0.1
3.047,0.3,-0.1,-0.1
3.049,0.2,-0.1,-0.1
3.05,0.2,-0.1,-0.1
3.053,0.2,-0.0,-0.1
3.055,0.2,-0.0,-0.0
3.057,0.2,-0.0,-0.0
3.074,0.2,-0.0,-0.0
3.124,0.2,0.0,-0.0
3.126,0.2,0.1,0.0
3.127,0.2,0.1,0.1
3.129,0.2,0.1,0.1
3.13,0.1,0.1,0.1
3.201,0.0,0.1,0.1
3.203,-0.2,0.2,0.1
3.205,-0.4,0.2,0.1
3.21,-0.6,-0.4,0.0
3.212,-1.0,-0.6,-0.1
3.292,-1.5,-0.5,-0.2
3.293,-1.7,-0.6,-0.3
3.295,-1.6,-0.7,-0.4
3.421,-1.5,-0.5,-0.3
3.423,-1.2,-0.3,-0.2
3.425,-0.7,-0.2,-0.1
3.426,-0.1,-0.2,0.0
3.428,0.3,-0.1,0.1
3.495,0.6,-0.1,0.2
3.498,0.7,-0.1,0.3
3.504,0.8,-0.0,0.3
3.506,0.6,0.0,0.3
3.507,0.5,0.0,0.4
3.603,0.4,0.0,0.3
3.604,0.5,0.0,0.2
3.606,0.5,-0.0,0.1
3.607,0.5,-0.1,-0.1
3.61,0.6,-0.1,-0.3
3.699,0.6,-0.1,-0.5
3.701,0.5,-0.2,-0.8
3.703,0.4,-0.2,-0.9
3.704,0.3,-0.1,-1.0
3.706,0.3,-0.1,-1.1
3.812,0.3,-0.1,-1.1
3.815,0.3,-0.0,-1.1
3.817,0.3,0.1,-1.1
3.819,0.4,0.1,-1.0
3.838,0.5,0.2,-0.9
3.921,1.1,0.3,-0.6
3.922,1.7,0.2,-0.4
3.924,1.5,0.2,-0.2
3.925,0.8,0.1,-0.1
3.927,0.1,0.2,-0.0
4.008,-0.6,0.3,0.0
4.01,-1.2,0.4,0.1
4.012,-1.6,0.4,0.1
4.022,-1.8,0.4,0.2
4.023,-1.6,0.4,0.2
4.025,-1.3,0.3,0.3
4.119,-0.9,0.2,0.3
4.12,-0.6,0.2,0.4
4.122,-0.4,0.5,0.6
4.124,-0.2,0.3,0.6
4.235,-0.1,-0.1,0.6
4.237,-0.2,-0.2,0.6
4.238,0.2,0.0,0.7
4.249,1.0,-0.1,0.6
4.251,1.3,-0.1,0.4
4.252,1.3,-0.0,0.3
4.322,1.3,-0.1,0.1
4.324,1.2,-0.1,-0.1
4.325,1.1,-0.1,-0.1
4.332,0.9,-0.0,-0.2
4.34,0.8,-0.1,-0.2
4.401,0.6,-0.1,-0.2
4.405,0.5,-0.1,-0.2
4.407,0.5,-0.2,-0.2
4.409,0.5,-0.2,-0.2
4.411,0.5,-0.3,-0.2
4.493,0.4,-0.3,-0.3
4.495,0.3,-0.3,-0.3
4.496,0.2,-0.3,-0.4
4.498,0.1,-0.3,-0.4
4.606,0.0,-0.3,-0.4
4.608,-0.0,-0.3,-0.5
4.619,-0.0,-0.3,-0.5
4.632,0.0,-0.2,-0.5
4.72,0.0,-0.1,-0.4
4.721,0.0,-0.0,-0.4
4.723,0.0,0.0,-0.3
4.725,0.0,0.1,-0.2
4.726,0.0,0.1,-0.1
4.828,-0.0,0.2,0.1
4.829,-0.0,0.3,0.2
4.831,-0.0,0.4,0.3
4.833,0.1,0.5,0.4
4.834,0.2,0.6,0.5
4.836,0.3,0.7,0.7
4.837,0.4,0.8,0.8
4.931,0.5,0.9,1.0
4.932,0.6,0.9,1.1
4.97,0.7,0.7,1.2
4.972,0.7,0.6,1.2
4.973,0.4,0.3,1.1
5.025,0.1,0.3,1.0
5.027,-0.4,0.1,0.9
5.029,-1.1,-0.7,0.6
5.03,-2.3,-0.9,0.4
5.117,-3.3,-0.9,0.2
5.123,-3.9,-0.8,-0.0
5.125,-4.0,-0.9,-0.2
5.126,-3.8,-0.9,-0.3
5.198,-3.3,-0.9,-0.4
5.2,-2.6,-0.8,-0.4
5.201,-1.7,-0.8,-0.4
5.205,-0.9,-0.9,-0.5
5.217,-0.2,-0.9,-0.6
5.219,0.0,-0.9,-0.7
5.314,0.0,-0.7,-0.8
5.316,-0.1,-0.5,-0.8
5.318,-0.3,-0.4,-0.9
5.319,-0.5,-0.4,-0.9
5.392,-0.5,-0.3,-0.9
5.425,-0.5,-0.1,-0.8
5.426,-0.2,0.1,-0.8
5.43,0.1,0.2,-0.7
5.432,0.5,0.3,-0.7
5.499,0.8,0.4,-0.6
5.501,0.9,0.6,-0.5
5.503,1.0,0.5,-0.4
5.505,0.9,0.5,-0.3
5.507,0.7,0.6,-0.3
5.597,0.5,0.6,-0.3
5.599,0.3,0.5,-0.3
5.6,0.0,0.5,-0.3
5.602,-0.2,0.5,-0.2
5.604,-0.4,0.6,-0.2
5.723,-0.5,0.4,-0.1
5.725,-1.3,0.5,0.1
5.728,-2.0,0.5,0.0
5.737,-2.3,0.0,-0.1
5.739,-2.1,-0.2,-0.3
5.795,-1.3,-0.3,0.1
5.803,-0.1,-0.3,0.5
5.805,1.0,-0.3,0.8
5.807,1.6,-0.3,1.0
5.808,1.7,-0.2,1.1
5.904,1.2,0.0,1.1
5.906,0.8,0.4,1.2
5.908,0.4,0.8,1.3
5.909,0.1,0.7,1.3
5.914,0.2,0.5,1.4
6.028,0.2,0.3,1.4
6.029,0.4,0.2,1.2
6.031,0.6,0.1,0.9
6.033,0.7,-0.1,0.4
6.034,0.7,-0.1,0.1
6.141,0.7,-0.1,-0.3
6.143,0.5,-0.1,-0.5
6.144,0.3,-0.2,-0.6
6.146,0.1,-0.2,-0.7
6.157,-0.1,-0.3,-0.7
6.158,-0.3,-0.5,-0.7
6.23,-0.3,-0.5,-0.7
6.232,-0.2,-0.4,-0.7
6.233,-0.1,-0.4,-0.7
6.235,0.1,-0.5,-0.7
6.236,0.1,-0.4,-0.7
6.319,0.1,-0.4,-0.8
6.321,0.1,-0.4,-0.8
6.327,0.0,-0.5,-0.8
6.329,-0.1,-0.5,-0.8
6.33,-0.2,-0.5,-0.8
6.423,-0.2,-0.4,-0.8
6.425,-0.3,-0.4,-0.7
6.427,-0.4,-0.3,-0.7
6.428,-0.4,-0.3,-0.5
6.43,-0.4,-0.2,-0.4
6.538,-0.3,-0.1,-0.2
6.54,-0.2,0.1,-0.1
6.549,-0.2,0.2,0.2
6.555,-0.1,0.3,0.4
6.557,-0.1,0.4,0.7
6.599,-0.2,0.5,0.9
6.6,-0.2,0.6,1.2
6.602,-0.3,0.7,1.4
6.603,-0.3,0.8,1.6
6.696,-0.3,0.8,1.7
6.698,-0.2,0.8,1.8
6.699,-0.1,0.7,1.8
6.701,0.0,0.6,1.6
6.8,0.1,0.5,1.4
6.802,0.1,0.9,1.3
6.803,-0.1,0.7,1.1
6.805,-0.3,0.0,0.8
6.807,-0.7,-0.2,0.6
6.937,-1.2,-0.0,0.4
6.938,-1.5,-0.2,0.2
6.94,-1.3,-0.3,-0.2
6.957,-1.0,-0.3,-0.3
6.959,-0.5,-0.1,-0.4
7.034,0.1,-0.3,-0.5
7.035,0.3,-0.5,-0.6
7.037,0.3,-0.7,-0.7
7.042,0.2,-0.9,-0.8
7.043,-0.1,-1.0,-1.0
7.047,-0.4,-1.0,-1.1
7.122,-0.5,-1.0,-1.2
7.129,-0.8,-0.9,-1.3
7.131,-0.9,-0.8,-1.4
7.133,-1.0,-0.7,-1.4
7.134,-1.0,-0.6,-1.3
7.234,-0.8,-0.5,-1.2
7.237,-0.5,-0.3,-1.0
7.245,-0.1,-0.2,-0.8
7.247,0.3,-0.1,-0.6
7.248,0.4,-0.0,-0.5
7.324,0.6,0.0,-0.3
7.338,0.6,0.1,-0.1
7.34,0.4,0.1,-0.0
7.343,0.2,0.2,0.1
7.345,-0.1,0.3,0.3
7.392,-0.3,0.4,0.5
7.394,-0.4,0.4,0.6
7.395,-0.5,0.4,0.8
7.402,-0.4,0.4,0.9
7.403,-0.4,0.4,0.9
7.496,-0.6,0.4,1.0
7.497,-1.1,0.5,1.1
7.499,-1.3,0.4,1.1
7.501,-1.3,0.4,1.0
7.595,-1.3,0.1,0.9
7.596,-1.5,0.0,0.9
7.598,-1.2,0.4,0.8
7.599,-0.3,0.6,0.9
7.601,0.5,-0.0,1.0
7.713,1.2,-0.2,0.9
7.724,1.6,0.2,0.8
7.726,1.8,0.3,0.6
7.728,1.6,-0.1,0.2
7.729,1.2,-0.2,-0.2
7.805,0.8,-0.2,-0.4
7.808,0.4,-0.2,-0.6
7.812,0.2,-0.3,-0.8
7.813,0.1,-0.3,-0.8
7.899,0.0,-0.3,-0.7
7.9,0.0,-0.2,-0.6
7.903,0.1,-0.1,-0.5
7.904,0.6,-0.2,-0.5
7.906,0.9,-0.2,-0.5
8.009,0.9,-0.2,-0.5
8.011,1.0,-0.3,-0.5
8.014,0.9,-0.4,-0.6
8.016,0.7,-0.4,-0.7
8.018,0.4,-0.5,-0.7
8.095,0.1,-0.5,-0.7
8.106,-0.1,-0.5,-0.7
8.109,-0.2,-0.5,-0.7
8.11,-0.2,-0.4,-0.6
8.112,-0.2,-0.4,-0.5
8.226,-0.2,-0.3,-0.4
8.235,-0.2,-0.3,-0.3
8.238,-0.2,-0.2,-0.2
8.243,-0.2,-0.1,-0.1
8.244,-0.2,0.0,0.0
8.326,-0.2,0.2,0.1
8.328,-0.2,0.3,0.2
8.33,-0.2,0.3,0.4
8.331,-0.3,0.4,0.6
8.333,-0.4,0.4,0.8
8.334,-0.4,0.4,0.9
8.43,-0.5,0.4,1.0
8.433,-0.6,0.6,1.1
8.434,-0.7,1.1,1.4
8.436,-0.7,0.7,1.4
8.453,-0.8,0.0,1.3
8.523,-1.0,0.2,1.2
8.524,-1.0,0.5,1.0
8.526,-0.8,0.2,0.7
8.527,-0.5,0.1,0.5
8.529,-0.4,0.2,0.4
8.621,-0.5,0.3,0.3
8.627,-0.6,0.2,0.2
8.629,-0.4,0.0,0.1
8.631,-0.6,-0.3,0.0
8.632,-0.9,-0.5,-0.1
8.724,-1.3,-0.6,-0.2
8.726,-1.4,-0.8,-0.4
8.728,-1.2,-0.7,-0.5
8.729,-0.7,-0.6,-0.6
8.731,-0.3,-0.5,-0.6
8.814,0.1,-0.4,-0.7
8.816,0.3,-0.3,-0.7
8.817,0.4,-0.3,-0.6
8.832,0.5,-0.2,-0.6
8.833,0.5,-0.2,-0.6
8.895,0.5,-0.1,-0.5
8.897,0.5,-0.0,-0.5
8.898,0.5,0.0,-0.4
8.9,0.4,0.1,-0.4
8.995,0.3,0.2,-0.3
8.996,0.3,0.2,-0.3
8.998,0.2,0.3,-0.2
8.999,0.2,0.3,-0.2
9.002,0.4,0.4,-0.1
9.124,0.6,0.4,-0.0
9.126,0.5,0.4,0.0
9.13,0.3,0.4,0.1
9.132,0.1,0.4,0.1
9.143,-0.2,0.4,0.2
9.241,-0.5,0.3,0.3
9.243,-0.7,0.2,0.3
9.244,-0.7,-0.0,0.2
9.261,-0.7,-0.0,0.2
9.263,-0.6,0.4,0.3
9.265,-0.4,-0.2,0.2
9.326,-0.2,-0.6,0.2
9.331,-0.1,-0.1,0.2
9.332,0.2,0.0,0.1
9.334,0.5,-0.4,0.0
9.336,0.6,-0.5,-0.1
9.419,0.4,-0.5,-0.2
9.42,0.2,-0.5,-0.3
9.422,0.0,-0.5,-0.3
9.433,-0.2,-0.3,-0.3
9.439,-0.2,-0.2,-0.2
9.496,-0.2,-0.2,-0.2
9.498,-0.0,-0.1,-0.0
9.499,0.2,-0.0,0.0
9.501,0.5,0.1,0.1
9.502,0.7,0.1,0.1
9.649,0.9,0.0,0.0
9.67,0.9,-0.0,-0.0
9.671,0.8,-0.0,-0.1
9.733,0.6,-0.1,-0.1
9.735,0.4,-0.2,-0.2
9.737,0.1,-0.2,-0.2
9.739,-0.1,-0.2,-0.2
9.74,-0.3,-0.2,-0.2
9.742,-0.3,-0.2,-0.2
9.823,-0.3,-0.1,-0.2
9.824,-0.3,-0.1,-0.1
9.826,-0.2,-0.0,-0.1
9.828,-0.1,0.1,0.0
9.829,-0.1,0.1,0.1
9.831,-0.1,0.1,0.2
9.928,-0.2,0.2,0.3
9.931,-0.2,0.2,0.4
9.933,-0.3,0.3,0.5
9.936,-0.3,0.3,0.6
9.996,-0.4,0.3,0.6
10.015,-0.5,0.2,0.7
10.032,-0.5,0.2,0.6
10.034,-0.7,0.6,0.7
10.103,-0.9,0.3,0.7
10.105,-1.2,-0.4,0.6
10.107,-1.6,-0.2,0.6
10.109,-1.9,-0.0,0.5
10.111,-1.8,-0.1,0.3
10.199,-1.6,-0.1,0.2
10.2,-1.2,0.0,0.2
10.202,-0.6,0.2,0.1
10.204,-0.2,0.1,-0.0
10.21,0.1,0.0,-0.1
10.296,0.2,-0.0,-0.2
10.297,0.1,-0.2,-0.3
10.3,-0.1,-0.4,-0.4
10.302,-0.4,-0.6,-0.5
10.303,-0.7,-0.7,-0.6
10.436,-0.9,-0.7,-0.7
10.447,-1.1,-0.6,-0.7
10.451,-1.1,-0.6,-0.7
10.452,-1.1,-0.6,-0.7
10.46,-1.0,-0.6,-0.6
10.529,-0.8,-0.5,-0.5
10.531,-0.7,-0.5,-0.4
10.532,-0.7,-0.4,-0.3
10.537,-0.7,-0.3,-0.2
10.539,-0.8,-0.2,-0.1
10.54,-0.9,-0.1,0.0
10.625,-1.0,-0.1,0.1
10.626,-1.0,-0.0,0.2
10.628,-0.8,0.1,0.4
10.63,-0.7,0.2,0.5
10.631,-0.7,0.2,0.6
10.726,-0.5,0.3,0.7
10.736,-0.5,0.4,0.7
10.738,-0.4,0.4,0.8
10.739,-0.5,0.4,0.8
10.749,-0.4,0.3,0.7
10.822,-0.2,0.3,0.7
10.824,-0.5,0.3,0.6
10.825,-0.4,0.3,0.5
10.827,-0.6,0.2,0.3
10.829,-0.8,0.3,0.3
10.918,-0.7,0.5,0.3
10.92,-0.4,0.1,0.3
10.922,-0.1,-0.4,0.2
10.923,-0.0,-0.2,0.2
10.925,0.0,-0.2,0.0
11.028,0.1,-0.3,-0.2
11.029,-0.1,-0.5,-0.4
11.035,-0.4,-0.6,-0.6
11.036,-0.7,-0.6,-0.8
11.038,-0.7,-0.7,-0.8
11.142,-0.4,-0.9,-0.8
11.143,-0.1,-0.9,-0.7
11.146,0.0,-0.9,-0.6
11.16,-0.1,-0.8,-0.6
11.168,-0.7,-0.9,-0.7
11.231,-1.4,-0.9,-0.7
11.232,-2.0,-0.8,-0.9
11.234,-2.5,-0.8,-0.9
11.235,-2.0,-0.8,-0.8
11.237,-1.4,-0.7,-0.7
11.302,-0.9,-0.8,-0.7
11.304,-0.4,-0.8,-0.5
11.305,-0.1,-0.7,-0.3
11.307,0.0,-0.7,-0.2
11.309,-0.0,-0.6,-0.1
11.392,-0.2,-0.5,0.1
11.393,-0.4,-0.4,0.2
11.395,-0.5,-0.3,0.4
11.534,-0.6,-0.3,0.5
11.536,-0.6,-0.2,0.6
11.538,-0.6,-0.2,0.7
11.54,-0.6,-0.1,0.8
11.551,-0.6,-0.0,0.9
11.626,-0.5,0.0,0.9
11.628,-0.6,0.1,1.0
11.629,-0.6,0.2,1.1
11.634,-0.6,0.2,1.1
11.636,-0.6,0.3,1.2
11.637,-0.5,0.3,1.2
11.733,-0.5,0.3,1.3
11.734,-0.5,0.4,1.3
11.74,-0.5,0.4,1.3
11.742,-0.6,0.3,1.2
11.744,-0.6,0.3,1.1
11.796,-0.7,0.3,1.0
11.798,-0.9,0.1,0.8
11.799,-1.2,0.3,0.7
11.801,-1.4,0.5,0.8
11.807,-1.7,-0.4,0.5
11.948,-2.1,-0.9,0.4
11.95,-2.4,-0.7,0.2
11.961,-2.4,-0.5,-0.0
11.963,-2.2,-0.5,-0.3
12.026,-1.8,-0.4,-0.4
12.028,-1.3,-0.3,-0.5
12.03,-0.7,-0.3,-0.5
12.031,-0.3,-0.3,-0.5
12.033,-0.1,-0.4,-0.6
12.045,-0.1,-0.5,-0.7
12.099,-0.2,-0.7,-0.8
12.102,-0.4,-0.7,-0.9
12.104,-0.6,-0.6,-1.1
12.106,-0.6,-0.5,-1.2
12.108,-0.5,-0.5,-1.2
12.193,-0.4,-0.4,-1.3
12.195,-0.4,-0.3,-1.3
12.197,-0.1,-0.3,-1.2
12.198,0.3,-0.2,-1.1
12.32,0.6,-0.1,-0.9
12.322,0.6,0.0,-0.8
12.336,0.7,0.0,-0.6
12.337,0.5,-0.0,-0.5
12.339,-0.1,0.0,-0.3
12.403,-0.5,0.1,-0.2
12.405,-1.0,0.1,-0.1
12.407,-1.4,0.2,0.0
12.408,-1.3,0.2,0.1
12.41,-1.0,0.2,0.3
12.499,-0.6,0.3,0.4
12.501,-0.1,0.4,0.6
12.503,0.2,0.4,0.7
12.505,0.6,0.5,0.8
12.507,1.0,0.4,0.9
12.597,1.3,0.4,1.0
12.599,1.4,0.5,1.0
12.601,1.6,0.5,1.0
12.602,1.7,0.4,1.0
12.608,1.7,0.5,0.9
12.739,1.5,0.4,0.8
12.75,1.4,0.6,0.6
12.751,1.5,0.9,0.8
12.753,1.1,0.4,0.5
12.765,0.9,0.1,0.3
12.824,1.0,0.2,0.1
12.827,1.0,-0.0,-0.1
12.829,1.2,-0.3,-0.3
12.835,1.2,-0.4,-0.5
12.837,0.8,-0.6,-0.7
12.839,0.3,-0.7,-0.9
12.921,-0.1,-0.8,-0.9
12.926,-0.4,-0.8,-0.9
12.928,-0.7,-0.8,-0.9
12.93,-1.0,-0.8,-0.9
12.931,-1.0,-0.8,-0.9
13.028,-0.9,-0.7,-0.8
13.037,-0.7,-0.7,-0.7
13.039,-0.5,-0.6,-0.6
13.04,-0.2,-0.5,-0.6
13.05,0.2,-0.4,-0.6
13.118,0.4,-0.3,-0.6
13.12,0.6,-0.2,-0.5
13.122,0.6,-0.2,-0.5
13.123,0.6,-0.2,-0.5
13.128,0.4,-0.1,-0.4
13.224,0.3,-0.1,-0.3
13.225,0.0,-0.1,-0.3
13.227,-0.2,-0.1,-0.2
13.229,-0.3,-0.0,-0.1
13.3,-0.4,0.0,0.0
13.301,-0.5,0.1,0.1
13.303,-0.5,0.2,0.3
13.304,-0.5,0.3,0.4
13.306,-0.4,0.4,0.6
13.405,-0.4,0.5,0.8
13.407,-0.3,0.6,1.0
13.41,-0.3,0.7,1.2
13.412,-0.3,0.8,1.4
13.494,-0.3,0.9,1.6
13.496,-0.3,0.9,1.7
13.498,-0.3,0.9,1.8
13.499,-0.3,0.8,1.8
13.501,-0.2,0.7,1.7
13.626,-0.4,0.7,1.6
13.628,-0.5,1.0,1.5
13.629,-0.9,0.3,1.2
13.631,-1.4,-0.4,0.8
13.632,-2.0,-0.3,0.5
13.725,-2.1,-0.1,0.2
13.727,-2.1,-0.3,-0.1
13.733,-1.9,-0.5,-0.3
13.735,-1.8,-0.5,-0.4
13.736,-1.6,-0.5,-0.6
13.738,-1.3,-0.6,-0.7
13.834,-1.3,-0.7,-0.8
13.837,-1.4,-1.0,-1.0
13.841,-1.7,-1.2,-1.1
13.853,-2.0,-1.2,-1.3
13.854,-2.1,-1.0,-1.4
13.92,-2.0,-0.9,-1.5
13.921,-1.8,-0.9,-1.6
13.923,-1.3,-0.7,-1.6
13.925,-1.1,-0.4,-1.5
13.934,-0.8,-0.3,-1.3
14.02,-0.2,-0.2,-1.0
14.022,0.6,-0.2,-0.7
14.023,1.0,-0.2,-0.4
14.028,0.8,-0.2,-0.2
14.03,0.2,-0.2,0.0
14.126,-0.8,-0.3,0.1
14.127,-1.7,-0.2,0.2
14.129,-2.3,-0.1,0.3
14.131,-2.4,-0.1,0.4
14.132,-2.0,-0.2,0.5
14.245,-1.6,-0.2,0.7
14.246,-1.1,-0.1,0.8
14.283,-0.6,-0.1,1.0
14.285,-0.2,0.0,1.1
14.287,-0.1,0.1,1.3
14.331,0.1,0.2,1.3
14.339,0.0,0.2,1.3
14.341,-0.0,0.3,1.3
14.343,0.3,0.4,1.5
14.345,0.2,0.5,1.5
14.39,-0.1,0.5,1.4
14.391,0.3,0.4,1.2
14.393,0.6,0.6,1.2
14.493,0.8,0.6,1.2
14.494,0.7,0.0,0.9
14.496,0.4,-0.2,0.5
14.499,-0.0,0.1,0.3
14.505,-0.3,-0.1,-0.1
14.624,-0.6,-0.5,-0.5
14.627,-1.0,-0.6,-0.8
14.629,-1.4,-0.7,-1.1
14.652,-1.7,-0.9,-1.3
14.654,-1.8,-0.9,-1.5
14.693,-1.8,-0.9,-1.6
14.698,-1.6,-0.9,-1.6
14.7,-1.5,-0.8,-1.7
14.701,-1.3,-0.7,-1.6
14.703,-1.1,-0.7,-1.4
14.797,-0.8,-0.7,-1.3
14.799,-0.5,-0.7,-1.2
14.801,-0.2,-0.5,-1.1
14.802,0.0,-0.4,-0.9
14.804,0.3,-0.2,-0.9
14.897,0.9,0.1,-0.7
14.898,1.3,0.1,-0.4
14.9,1.4,0.1,-0.3
14.905,1.3,0.1,0.0
14.907,1.5,0.2,0.0
15.029,1.6,0.2,0.3
15.031,1.4,0.1,0.3
15.052,1.2,0.1,0.4
15.055,0.8,-0.0,0.4
15.057,0.3,-0.1,0.4
15.124,-0.3,-0.2,0.4
15.135,-0.8,-0.2,0.4
15.136,-1.4,-0.3,0.5
15.138,-1.8,-0.2,0.5
15.14,-1.9,-0.2,0.7
15.141,-1.8,-0.2,0.8
15.225,-1.6,-0.2,1.0
15.226,-1.3,-0.1,1.2
15.228,-1.1,0.0,1.4
15.229,-0.9,0.0,1.6
15.231,-0.8,0.1,1.7
15.333,-0.9,0.1,1.8
15.335,-1.2,-0.1,1.7
15.338,-1.6,-0.1,1.5
15.34,-2.0,0.3,1.5
15.341,-2.3,-0.3,1.2
15.417,-2.6,-0.8,0.9
15.419,-2.9,-0.7,0.6
15.424,-3.0,-0.6,0.3
15.426,-2.7,-0.4,0.0
15.427,-2.2,-0.3,-0.1
15.522,-1.7,-0.2,-0.2
15.524,-1.0,-0.1,-0.2
15.526,-0.4,-0.0,-0.2
15.527,-0.1,-0.1,-0.2
15.529,0.0,-0.3,-0.2
15.621,-0.0,-0.3,-0.4
15.622,-0.3,-0.4,-0.5
15.624,-0.7,-0.4,-0.7
15.626,-0.9,-0.2,-0.9
15.632,-1.0,-0.2,-1.0
15.727,-0.9,-0.1,-1.1
15.729,-0.7,-0.1,-1.1
15.731,-0.3,-0.1,-1.0
15.732,0.0,-0.1,-1.0
15.742,0.2,-0.1,-0.8
15.821,-0.0,-0.2,-0.7
15.822,-0.5,-0.3,-0.5
15.824,-1.6,-0.4,-0.4
15.828,-2.1,-0.4,-0.2
15.834,-1.8,-0.4,0.0
15.894,-1.4,-0.3,0.2
15.895,-0.7,-0.1,0.4
15.9,-0.2,0.1,0.4
15.902,0.3,0.2,0.6
15.904,0.8,0.3,0.7
15.996,1.3,0.4,0.9
15.997,1.7,0.5,1.0
15.999,1.9,0.6,1.0
16.001,1.9,0.5,0.9
16.108,2.0,0.6,1.1
16.11,1.6,0.5,0.9
16.111,1.0,0.4,0.7
16.113,0.5,0.3,0.4
16.196,-0.0,0.2,0.3
16.198,-0.1,0.5,0.2
16.2,0.2,0.3,0.1
16.205,0.4,-0.4,-0.0
16.21,0.5,-0.3,-0.1
16.292,0.6,-0.0,-0.1
16.294,0.6,-0.4,-0.3
16.295,0.6,-0.7,-0.5
16.306,0.5,-0.7,-0.6
16.308,0.6,-0.6,-0.7
16.409,1.0,-0.6,-0.8
16.411,1.2,-0.6,-0.8
16.412,0.7,-0.6,-0.8
16.414,0.0,-0.7,-0.9
16.416,-0.5,-0.8,-0.8
16.565,-1.4,-0.6,-1.0
16.571,-2.2,-0.6,-0.9
16.573,-1.7,-0.6,-0.8
16.575,-1.0,-0.4,-0.8
16.586,-0.5,-0.3,-0.7
16.659,0.2,-0.2,-0.5
16.661,0.8,-0.0,-0.4
16.662,1.1,0.1,-0.3
16.664,1.3,0.2,-0.2
16.666,1.3,0.3,-0.1
16.667,1.2,0.4,-0.0
16.723,1.2,0.5,0.1
16.725,1.1,0.5,0.1
16.726,1.0,0.6,0.2
16.728,0.9,0.6,0.2
16.729,0.8,0.6,0.3
16.797,0.7,0.6,0.3
16.798,0.6,0.5,0.4
16.8,0.4,0.5,0.4
16.802,0.1,0.6,0.4
16.807,-0.0,0.6,0.5
16.931,-0.2,0.6,0.6
16.934,-0.2,0.6,0.7
16.946,-0.3,0.5,0.7
16.948,-0.3,0.5,0.8
17.027,-0.4,0.9,0.9
17.028,-0.4,0.8,1.0
17.03,-0.5,0.1,0.9
17.031,-0.9,-0.0,0.8
17.039,-1.3,-0.0,0.6
17.041,-1.5,-0.1,0.3
17.118,-1.6,-0.1,-0.0
17.125,-1.5,0.1,-0.3
17.126,-1.1,0.2,-0.4
17.128,-0.5,0.2,-0.5
17.129,0.0,0.0,-0.5
17.202,0.3,-0.3,-0.4
17.203,0.2,-0.6,-0.4
17.205,-0.2,-0.8,-0.5
17.211,-0.4,-0.8,-0.6
17.225,-0.6,-0.7,-0.7
17.295,-0.7,-0.7,-0.7
17.307,-0.6,-0.6,-0.8
17.309,-0.6,-0.5,-0.8
17.312,-0.6,-0.5,-0.8
17.393,-0.6,-0.4,-0.7
17.395,-0.5,-0.3,-0.6
17.396,-0.2,-0.2,-0.4
17.398,0.0,-0.1,-0.3
17.4,0.2,-0.0,-0.2
17.513,0.2,0.1,-0.0
17.515,0.2,0.2,0.1
17.516,0.1,0.3,0.1
17.518,-0.0,0.3,0.2
17.52,-0.2,0.3,0.3
17.639,-0.4,0.3,0.3
17.64,-0.7,0.3,0.4
17.642,-1.0,0.2,0.4
17.644,-1.0,0.2,0.4
17.645,-0.9,0.2,0.4
17.764,-0.6,0.1,0.5
17.776,-0.1,0.1,0.6
17.778,0.2,0.0,0.5
17.779,0.3,-0.1,0.5
17.781,0.1,-0.1,0.4
17.782,-0.3,0.4,0.4
17.841,-0.2,0.3,0.4
17.843,0.2,-0.1,0.4
17.844,0.3,0.0,0.5
17.846,0.6,0.1,0.5
17.847,0.8,-0.1,0.3
17.905,0.8,-0.2,0.2
17.907,0.7,-0.1,-0.0
17.908,0.8,-0.1,-0.2
17.91,0.7,-0.3,-0.4
17.912,0.5,-0.3,-0.5
18.01,0.5,-0.2,-0.6
18.012,0.5,-0.2,-0.7
18.015,0.5,-0.2,-0.7
18.123,0.6,-0.1,-0.7
18.157,0.6,-0.2,-0.6
18.159,0.6,-0.2,-0.6
18.161,0.5,-0.3,-0.5
18.163,0.4,-0.3,-0.5
18.23,0.3,-0.3,-0.4
18.231,0.1,-0.3,-0.4
18.233,0.1,-0.2,-0.3
18.235,0.1,-0.2,-0.3
18.236,0.1,-0.1,-0.2
18.241,0.2,-0.1,-0.1
18.292,0.2,-0.0,-0.0
18.294,0.2,0.0,0.0
18.296,0.1,0.1,0.1
18.297,0.1,0.1,0.1
18.299,0.0,0.1,0.2
18.427,-0.1,0.2,0.2
18.429,-0.1,0.2,0.3
18.432,-0.2,0.2,0.4
18.439,-0.3,0.3,0.4
18.515,-0.4,0.3,0.5
18.517,-0.5,0.3,0.6
18.518,-0.5,0.3,0.7
18.52,-0.5,0.3,0.7
18.521,-0.6,0.5,0.7
18.601,-0.6,0.8,0.9
18.603,-0.6,0.3,0.8
18.606,-0.7,-0.1,0.8
18.608,-1.0,0.2,0.7
18.614,-1.0,0.3,0.6
18.616,-0.8,0.2,0.4
18.69,-0.6,0.2,0.2
18.692,-0.4,0.3,0.2
18.693,-0.3,0.2,0.0
18.696,-0.2,-0.0,-0.1
18.801,-0.3,-0.2,-0.2
18.803,-0.4,-0.5,-0.4
18.804,-0.6,-0.6,-0.5
18.806,-0.7,-0.7,-0.7
18.816,-0.8,-0.8,-0.7
18.929,-1.0,-0.8,-0.8
18.931,-1.2,-0.7,-0.9
18.932,-1.1,-0.7,-0.8
18.934,-1.0,-0.6,-0.7
18.936,-0.9,-0.5,-0.6
19.021,-0.8,-0.4,-0.5
19.023,-0.7,-0.4,-0.3
19.024,-0.6,-0.3,-0.2
19.026,-0.7,-0.2,-0.1
19.032,-0.7,-0.1,-0.0
19.034,-0.7,-0.0,0.0
19.121,-0.6,0.1,0.1
19.122,-0.3,0.2,0.2
19.125,-0.1,0.3,0.3
19.126,0.1,0.3,0.3
19.132,0.2,0.4,0.4
19.237,0.2,0.3,0.5
19.24,0.1,0.3,0.5
19.251,0.2,0.3,0.5
19.253,0.2,0.2,0.5
19.262,0.2,0.2,0.4
19.321,0.2,0.1,0.4
19.323,0.3,0.2,0.3
19.324,0.4,0.6,0.4
19.332,0.7,0.3,0.4
19.334,0.7,-0.2,0.3
19.416,0.5,-0.1,0.4
19.418,0.6,-0.0,0.2
19.42,0.7,-0.4,0.0
19.421,0.7,-0.5,-0.2
19.423,0.3,-0.4,-0.4
19.526,-0.0,-0.5,-0.6
19.528,-0.3,-0.6,-0.7
19.529,-0.7,-0.6,-0.8
19.535,-1.0,-0.7,-0.8
19.537,-1.0,-0.6,-0.8
19.634,-0.8,-0.5,-0.8
19.647,-0.5,-0.3,-0.7
19.649,-0.1,-0.2,-0.6
19.651,0.2,-0.1,-0.5
19.652,0.5,-0.1,-0.4
19.719,0.5,-0.1,-0.3
19.721,0.4,-0.1,-0.2
19.723,0.2,-0.1,-0.1
19.724,0.1,-0.0,-0.0
19.726,0.0,-0.0,0.1
19.822,0.0,0.0,0.1
19.824,-0.0,0.0,0.2
19.826,-0.0,0.1,0.3
19.827,-0.0,0.2,0.4
19.927,-0.0,0.2,0.4
19.935,-0.0,0.3,0.5
19.936,0.0,0.3,0.6
19.938,0.0,0.4,0.6
19.939,0.1,0.4,0.7
20.021,0.0,0.4,0.8
20.054,-0.0,0.4,0.8
20.056,-0.2,0.4,0.8
20.058,-0.3,0.3,0.8
20.06,-0.5,0.3,0.8
20.126,-0.7,0.2,0.7
20.128,-1.0,0.2,0.6
20.13,-1.2,0.5,0.6
20.132,-1.4,-0.1,0.5
20.133,-1.6,-0.6,0.4
20.227,-1.9,-0.2,0.5
20.229,-1.9,-0.1,0.4
20.232,-1.7,-0.3,0.2
20.234,-1.4,-0.3,0.2
20.236,-1.0,-0.0,0.2
20.334,-0.5,-0.1,0.0
20.336,-0.3,-0.2,-0.1
20.337,-0.2,-0.3,-0.2
20.344,-0.2,-0.4,-0.4
20.345,-0.5,-0.7,-0.6
20.421,-0.8,-0.8,-0.7
20.422,-1.1,-0.7,-0.9
20.426,-1.2,-0.7,-1.0
20.428,-1.2,-0.7,-1.0
20.431,-1.2,-0.6,-1.0
20.516,-1.1,-0.5,-0.9
20.521,-0.9,-0.4,-0.8
20.522,-0.6,-0.3,-0.6
20.524,-0.4,-0.2,-0.5
20.526,-0.3,-0.1,-0.3
20.614,-0.2,-0.1,-0.1
20.615,-0.4,-0.1,0.0
20.617,-0.9,-0.1,0.1
20.618,-1.3,-0.1,0.1
20.62,-1.4,-0.0,0.2
20.729,-1.2,0.0,0.3
20.73,-0.9,0.1,0.4
20.732,-0.7,0.1,0.4
20.734,-0.4,0.2,0.5
20.744,-0.0,0.2,0.5
20.816,-0.0,0.2,0.5
20.821,-0.3,0.1,0.5
20.823,-0.6,0.0,0.4
20.824,-0.3,-0.0,0.3
20.826,0.0,0.2,0.4
20.947,0.2,0.6,0.5
20.948,0.9,-0.1,0.6
20.95,1.2,-0.5,0.5
20.952,0.9,-0.0,0.6
20.953,0.9,-0.1,0.4
21.048,1.1,-0.5,0.1
21.05,0.9,-0.4,-0.1
21.051,0.4,-0.3,-0.4
21.053,0.0,-0.4,-0.7
21.055,-0.1,-0.4,-0.9
21.056,-0.3,-0.4,-0.9
21.123,-0.3,-0.4,-0.9
21.126,-0.2,-0.4,-0.9
21.136,-0.1,-0.3,-0.8
21.138,0.0,-0.3,-0.7
21.222,0.1,-0.2,-0.5
21.224,0.2,-0.2,-0.4
21.226,0.2,-0.2,-0.3
21.227,0.1,-0.2,-0.2
21.229,0.0,-0.2,-0.1
21.318,-0.1,-0.1,-0.1
21.319,-0.1,-0.1,0.0
21.321,-0.0,-0.1,0.1
21.323,0.1,0.0,0.1
21.329,0.2,0.0,0.2
21.424,0.3,0.1,0.2
21.427,0.3,0.1,0.3
21.429,0.3,0.2,0.3
21.43,0.3,0.2,0.4
21.535,0.3,0.3,0.4
21.537,0.3,0.3,0.5
21.541,0.3,0.3,0.5
21.553,0.3,0.3,0.6
21.554,0.2,0.3,0.6
21.619,0.2,0.3,0.6
21.621,0.1,0.3,0.7
21.622,-0.1,0.3,0.7
21.627,-0.2,0.3,0.7
21.629,-0.3,0.3,0.7
21.716,-0.3,0.3,0.7
21.718,-0.5,0.7,0.9
21.719,-0.6,0.3,0.8
21.721,-0.7,-0.3,0.7
21.722,-1.0,-0.2,0.7
21.82,-1.5,-0.1,0.6
21.822,-1.8,-0.2,0.4
21.824,-1.7,-0.2,0.3
21.825,-1.4,-0.3,0.2
21.827,-1.1,-0.3,-0.0
21.909,-0.7,-0.3,-0.3
21.911,-0.4,-0.3,-0.5
21.922,-0.3,-0.4,-0.7
21.924,-0.3,-0.4,-1.0
21.925,-0.4,-0.5,-1.1
22.043,-0.5,-0.6,-1.3
22.045,-0.5,-0.6,-1.4
22.046,-0.4,-0.6,-1.5
22.048,-0.3,-0.5,-1.5
22.122,-0.2,-0.5,-1.5
22.124,-0.1,-0.5,-1.4
22.126,-0.0,-0.4,-1.2
22.127,-0.0,-0.4,-1.0
22.129,-0.1,-0.3,-0.8
22.134,-0.2,-0.3,-0.6
22.239,-0.3,-0.2,-0.4
22.241,-0.3,-0.1,-0.2
22.243,-0.3,-0.0,0.0
22.245,-0.3,0.1,0.2
22.247,-0.4,0.1,0.4
22.313,-0.4,0.2,0.6
22.326,-0.5,0.3,0.8
22.328,-0.6,0.2,1.0
22.33,-0.8,0.3,1.1
22.337,-0.8,0.3,1.2
22.417,-0.9,0.3,1.3
22.419,-1.0,0.3,1.2
22.42,-0.9,0.3,1.2
22.422,-0.4,0.2,1.2
22.424,-0.2,0.2,1.1
22.52,0.0,0.2,1.0
22.521,0.1,0.1,0.8
22.523,0.2,0.2,0.8
22.524,0.1,0.3,0.6
22.526,0.0,0.3,0.6
22.629,-0.1,-0.1,0.4
22.632,-0.5,-0.4,0.3
22.634,-0.9,-0.4,0.2
22.636,-1.2,-0.4,-0.0
22.644,-1.5,-0.4,-0.2
22.719,-1.9,-0.7,-0.4
22.721,-2.6,-0.9,-0.5
22.723,-3.0,-1.0,-0.6
22.725,-3.1,-1.0,-0.7
22.727,-3.0,-1.0,-0.8
22.819,-2.6,-1.0,-1.0
22.82,-2.2,-0.9,-1.1
22.822,-1.7,-0.8,-1.2
22.827,-1.2,-0.7,-1.2
22.828,-0.7,-0.6,-1.2
22.94,-0.4,-0.7,-1.1
22.942,-0.2,-0.7,-1.0
22.944,-0.2,-0.8,-0.9
22.945,-0.4,-0.9,-0.7
22.947,-0.6,-1.0,-0.6
23.052,-0.8,-1.1,-0.4
23.054,-0.9,-1.1,-0.3
23.055,-0.8,-1.1,-0.2
23.057,-1.0,-1.2,0.0
23.069,-1.2,-1.2,0.2
23.071,-1.8,-1.3,0.4
23.114,-2.6,-1.3,0.5
23.116,-3.5,-1.3,0.5
23.122,-3.9,-1.5,0.3
23.124,-4.1,-1.5,0.2
23.218,-3.9,-1.5,0.1
23.22,-3.1,-1.6,-0.0
23.221,-2.3,-1.6,-0.1
23.223,-1.6,-1.5,-0.2
23.315,-1.0,-1.5,-0.4
23.317,-0.8,-1.5,-0.5
23.322,-0.9,-1.5,-0.6
23.324,-1.1,-1.5,-0.7
23.326,-1.1,-1.4,-0.8
23.434,-1.0,-1.3,-0.9
23.436,-0.8,-1.3,-0.9
23.438,-0.3,-1.3,-0.9
23.44,0.1,-1.2,-0.9
23.451,0.3,-1.1,-0.8
23.519,0.3,-1.1,-0.8
23.52,0.4,-0.9,-0.8
23.522,0.5,-0.7,-0.8
23.524,1.0,-0.5,-0.8
23.525,2.3,-0.3,-0.8
23.621,3.3,-0.2,-0.8
23.623,3.1,-0.2,-0.8
23.624,2.5,-0.1,-0.9
23.626,2.5,-0.1,-0.9
23.628,2.7,-0.0,-1.0
23.715,2.7,-0.0,-1.1
23.717,2.5,-0.0,-1.2
23.719,2.4,-0.0,-1.2
23.72,2.5,-0.1,-1.3
23.722,2.2,-0.4,-1.3
23.834,1.9,-0.5,-1.3
23.835,1.8,-0.5,-1.2
23.837,1.9,-0.5,-1.1
23.849,1.9,-0.7,-1.0
23.852,1.8,-0.8,-0.9
23.916,1.6,-0.9,-0.9
23.922,1.6,-1.1,-0.9
23.927,1.7,-1.0,-0.9
23.928,2.0,-1.0,-0.8
23.93,2.2,-1.1,-0.8
24.02,2.4,-1.0,-0.7
24.022,2.4,-0.9,-0.6
24.027,2.8,-0.8,-0.6
24.029,3.3,-0.8,-0.5
24.031,3.6,-0.7,-0.4
24.115,3.6,-0.8,-0.4
24.117,3.2,-0.8,-0.3
24.118,2.6,-0.8,-0.4
24.12,2.0,-0.8,-0.4
24.125,1.3,-0.7,-0.5
24.307,0.8,-0.6,-0.4
24.313,0.6,-0.6,-0.5
24.325,0.6,-0.6,-0.4
24.327,0.6,-0.4,-0.4
24.329,0.5,-0.5,-0.3
24.37,0.7,-0.8,-0.4
24.372,0.6,-0.7,-0.3
24.374,0.7,-0.3,-0.0
24.375,0.6,0.3,0.1
24.383,0.5,0.1,-0.2
24.474,0.3,0.1,-0.0
24.475,0.3,0.2,0.2
24.477,0.1,-0.1,0.0
24.478,0.1,-0.3,0.2
24.487,0.0,-0.2,-0.3
24.554,-0.0,0.2,-0.5
24.564,-0.0,0.8,-0.5
24.566,-0.2,1.3,-0.5
24.568,-0.2,1.0,-0.5
24.57,-0.2,0.7,-0.3
24.571,-0.1,0.3,-0.2
24.651,0.0,-0.0,0.0
24.653,0.2,-0.1,-0.1
24.655,0.3,-0.1,-0.3
24.656,0.2,-0.2,-0.2
24.72,0.1,-0.1,0.1
24.722,0.0,-0.2,0.3
24.724,0.0,-0.5,0.4
24.725,0.1,-0.7,0.1
24.827,0.1,-0.6,-0.2
24.829,0.2,-0.5,-0.4
24.831,0.3,-0.7,-0.2
24.832,0.2,-0.4,0.1
24.834,-0.3,0.6,0.5
24.929,-0.3,0.0,0.1
24.932,-0.2,-0.2,0.0
24.934,-0.2,-0.1,0.1
24.942,-0.2,-0.2,0.1
24.944,-0.5,-0.2,0.0
25.019,-0.6,-0.1,0.0
25.036,-0.6,-0.1,0.1
25.038,-0.5,-0.1,0.1
25.04,-0.3,-0.1,0.2
25.042,-0.2,-0.0,0.2
25.12,-0.1,0.0,0.2
25.122,-0.0,-0.1,0.2
25.124,-0.1,-0.1,0.2
25.125,-0.0,-0.0,0.3
25.127,-0.0,-0.1,0.2
25.218,0.0,-0.1,0.1
25.224,0.0,-0.1,0.1
25.225,0.1,-0.1,0.1
25.227,0.2,-0.1,0.1
25.229,0.2,-0.1,0.0
25.328,0.3,-0.1,0.0
25.33,0.3,-0.0,-0.0
25.333,0.3,-0.0,-0.0
25.335,0.4,0.0,-0.1
25.337,0.5,0.1,-0.1
25.415,0.6,0.0,-0.1
25.416,0.6,0.0,-0.1
25.42,0.6,0.0,-0.1
25.427,0.6,-0.0,-0.1
25.429,0.5,-0.3,-0.3
25.514,0.4,0.0,0.0
25.515,0.3,0.4,0.2
25.517,-0.4,1.7,0.5
25.518,-0.1,0.1,0.4
25.52,-0.1,0.3,0.5
25.615,0.1,0.1,0.3
25.616,0.2,-0.2,-0.1
25.623,-0.1,-0.2,0.2
25.625,-0.1,-0.1,0.0
25.627,-0.0,0.2,0.0
25.725,-0.1,0.3,-0.1
25.728,-0.2,0.3,-0.1
25.736,-0.1,-0.1,-0.2
25.738,0.0,-0.4,-0.2
25.749,0.1,-0.3,-0.1
25.816,0.1,0.1,-0.4
25.821,-0.1,0.0,-0.4
25.823,-0.1,-0.2,-0.2
25.824,0.1,-0.2,-0.2
25.826,0.0,-0.4,0.2
25.914,0.2,-0.0,0.0
25.916,0.2,0.1,-0.0
25.918,0.1,0.2,-0.2
25.919,0.0,0.0,-0.1
25.921,0.0,0.1,-0.1
26.02,0.2,0.1,0.0
26.021,0.2,0.1,0.1
26.023,0.2,-0.1,-0.0
26.025,0.2,-0.2,-0.1
26.026,0.1,-0.2,0.1
26.13,0.0,0.0,0.1
26.133,0.0,0.2,0.2
26.135,0.2,0.1,0.3
26.146,0.4,-0.0,0.2
26.156,0.4,-0.1,0.2
26.226,0.3,0.0,0.2
26.227,0.1,0.1,0.1
26.229,-0.0,-0.0,-0.0
26.231,0.0,-0.0,-0.1
26.235,0.1,-0.0,-0.2
26.318,0.1,-0.3,-0.2
26.32,0.1,-0.3,-0.4
26.321,0.0,-0.3,-0.5
26.323,0.0,-0.6,-0.1
26.324,0.1,0.2,0.1
26.414,0.0,-0.2,-0.0
26.416,0.2,-0.5,-0.2
26.417,0.2,-0.5,-0.2
26.419,-0.1,0.4,0.2
26.533,-0.2,0.4,0.2
26.535,-0.0,0.1,0.2
26.536,-0.1,-0.1,-0.0
26.548,-0.1,-0.1,-0.1
26.549,-0.2,-0.3,-0.1
26.615,-0.3,-0.5,-0.0
26.625,-0.0,0.1,-0.1
26.626,-0.1,0.3,-0.0
26.628,-0.1,0.4,-0.0
26.629,-0.1,0.2,0.0
26.692,0.0,-0.2,0.1
26.693,0.1,-0.5,-0.1
26.699,0.0,-0.2,0.3
26.701,-0.1,-0.4,0.3
26.703,0.0,-0.2,0.1
26.811,-0.1,0.3,-0.3
26.812,0.2,0.2,-0.4
26.814,0.2,-0.4,-0.4
26.82,-0.3,0.9,0.2
26.939,0.1,-0.2,-0.0
26.941,-0.1,-0.1,-0.1
26.942,-0.2,0.1,0.0
26.978,-0.1,-0.1,-0.1
26.98,-0.1,0.0,-0.0
26.982,-0.1,0.0,-0.1
27.053,-0.1,0.0,-0.0
27.055,-0.0,0.0,-0.0
27.056,0.0,0.0,-0.0
27.058,-0.0,0.0,0.0
27.059,-0.1,0.0,-0.0
27.116,-0.1,-0.0,-0.0
27.117,-0.1,-0.0,-0.0
27.119,-0.1,-0.0,-0.0
27.121,-0.0,-0.0,-0.0
27.225,-0.0,-0.0,0.0
27.227,0.0,-0.0,0.0
27.229,0.0,0.0,0.0
27.23,0.0,0.0,0.0
27.232,0.0,0.0,0.0
27.233,0.1,0.0,0.0
27.325,0.0,0.0,0.0
27.34,0.0,0.0,0.0
27.342,-0.0,0.0,0.0
27.353,-0.0,0.0,0.0
27.355,0.0,0.0,0.0
27.424,0.0,0.0,-0.0
27.426,0.0,0.0,-0.0
27.43,-0.0,0.0,-0.0
27.435,-0.0,0.0,-0.0
27.437,0.4,0.0,-0.0
