vertical_Accel_x,vertical_Accel_y,vertical_Accel_z,accel_time_list
-1.027,6.718,8.353,0.0
0.791,5.274,8.221,0.002
0.191,6.074,8.021,0.008
-0.09,5.03,7.989,0.012
-0.586,4.543,8.229,0.014
-0.579,5.363,7.988,0.1
0.491,5.374,8.221,0.102
0.302,5.607,8.22,0.103
-0.22,4.841,8.422,0.105
-0.442,4.875,8.324,0.107
-0.037,4.988,8.264,0.2
-0.957,4.929,8.286,0.202
0.093,5.48,8.241,0.203
-0.22,5.141,8.322,0.205
-0.037,5.288,8.164,0.206
0.152,5.355,8.065,0.308
-0.566,4.902,8.207,0.314
0.021,5.463,7.888,0.316
-0.319,5.144,7.832,0.317
-0.136,5.291,7.674,0.329
0.053,5.358,7.575,0.4
-0.809,5.774,7.221,0.402
-0.882,6.653,6.058,0.403
-1.029,6.014,5.043,0.405
-1.793,5.52,4.459,0.407
-1.874,5.684,4.711,0.5
-1.726,4.236,4.349,0.502
-2.374,2.384,4.811,0.507
-2.584,0.131,8.586,0.508
-1.7,-4.1,9.0,0.51
-0.033,-3.778,7.984,0.6
0.6,-4.8,6.9,0.602
1.688,-6.484,5.78,0.603
1.46,-6.28,7.2,0.605
0.776,-6.168,7.56,0.611
1.411,-7.096,6.228,0.699
0.572,-7.209,6.079,0.701
0.132,-8.523,5.93,0.703
-0.545,-9.715,5.687,0.717
2.387,-10.715,1.855,0.8
1.96,-11.094,0.13,0.806
1.772,-11.945,0.236,0.807
1.855,-12.84,0.278,0.809
1.866,-13.319,0.033,0.811
1.184,-13.296,-3.035,0.9
0.705,-13.275,-3.208,0.906
0.521,-12.659,-2.914,0.908
0.684,-11.956,-2.415,0.909
1.089,-11.631,-1.823,0.911
-0.014,-11.386,-2.363,1.0
-0.11,-11.19,-1.902,1.003
-0.135,-10.465,-1.847,1.004
-0.047,-9.953,-1.829,1.006
0.047,-10.147,-1.771,1.008
1.337,-10.323,-0.159,1.1
1.095,-10.585,-0.272,1.101
1.126,-10.174,-0.942,1.103
1.553,-9.687,-0.504,1.118
1.984,-9.536,1.145,1.121
1.689,-9.291,1.297,1.204
2.287,-8.628,0.23,1.206
2.119,-8.645,-0.172,1.208
1.307,-8.677,-1.924,1.21
1.4,-8.8,-2.2,1.211
1.148,-9.095,-1.936,1.3
0.951,-8.883,-1.698,1.302
1.124,-8.797,-1.968,1.303
1.196,-9.012,-2.138,1.305
1.068,-9.304,-1.942,1.307
-0.259,-9.641,-1.312,1.4
-0.043,-9.657,-1.369,1.401
-0.024,-9.676,-1.465,1.403
-0.159,-9.641,-1.812,1.405
-0.312,-9.488,-2.082,1.406
1.11,-9.299,-2.789,1.503
1.109,-9.388,-2.679,1.505
0.626,-9.364,-2.937,1.516
0.549,-9.395,-3.145,1.519
0.987,-9.568,-3.281,1.521
2.61,-9.149,-4.149,1.6
2.324,-9.318,-4.618,1.601
2.422,-9.708,-4.708,1.603
2.867,-10.233,-4.833,1.605
2.771,-10.553,-4.553,1.606
2.52,-10.598,-4.298,1.7
2.578,-10.492,-4.692,1.702
1.778,-11.247,-3.663,1.704
1.35,-11.061,-4.433,1.705
3.047,-11.413,-3.279,1.71
2.877,-11.218,-3.31,1.8
3.059,-10.677,-2.328,1.801
3.193,-10.401,-1.812,1.803
3.249,-10.407,-1.087,1.805
2.945,-10.265,-0.579,1.806
0.423,-10.266,0.859,1.9
0.417,-10.105,0.674,1.911
0.479,-9.088,0.203,1.914
0.483,-8.295,0.026,1.916
0.778,-8.111,0.122,1.918
1.807,-7.469,-0.191,2.0
1.242,-7.147,-0.273,2.001
1.073,-7.191,-0.009,2.003
1.104,-7.635,0.355,2.006
1.157,-8.258,-0.55,2.016
1.316,-8.824,-1.246,2.1
1.256,-8.95,-1.803,2.101
0.455,-8.365,-3.104,2.112
1.158,-8.008,-3.701,2.114
1.244,-8.021,-3.653,2.116
1.2,-8.1,-3.8,2.2
1.163,-8.08,-3.935,2.202
0.88,-7.826,-4.191,2.203
0.615,-7.716,-4.102,2.205
0.326,-7.561,-4.37,2.207
-0.2,-6.48,-5.86,2.299
0.179,-6.539,-5.746,2.3
0.421,-6.801,-5.634,2.302
0.326,-6.786,-5.662,2.304
0.243,-7.557,-5.031,2.399
0.602,-7.798,-5.32,2.401
0.898,-7.902,-5.28,2.407
1.037,-7.963,-5.473,2.408
1.206,-8.494,-5.859,2.41
2.08,-8.237,-7.175,2.499
2.468,-8.842,-7.445,2.501
2.138,-9.601,-7.514,2.503
1.772,-10.076,-7.492,2.504
1.88,-10.037,-7.575,2.506
3.322,-10.916,-5.922,2.599
3.363,-11.627,-5.963,2.606
3.153,-12.029,-6.753,2.608
2.871,-10.606,-6.871,2.609
2.576,-8.665,-6.476,2.611
1.967,-7.133,-7.033,2.699
1.671,-7.568,-6.781,2.706
1.641,-8.427,-6.749,2.708
1.465,-8.916,-6.61,2.711
0.218,-10.182,-5.676,2.713
-0.48,-10.58,-5.796,2.8
-0.725,-11.025,-6.145,2.802
-2.082,-10.382,-8.476,2.804
-1.446,-11.4,-0.169,2.81
-0.777,-10.7,-0.215,2.812
-0.099,-9.014,-5.427,2.899
-0.016,-9.569,-4.271,2.901
0.131,-9.033,-4.604,2.903
1.12,-8.6,-3.66,2.91
0.225,-8.302,-3.312,2.912
0.137,-7.795,-3.471,2.999
0.249,-7.088,-3.23,3.001
0.347,-6.573,-2.837,3.003
0.47,-6.459,-2.355,3.004
0.482,-6.452,-2.215,3.02
0.531,-6.149,-2.091,3.099
0.771,-6.067,-1.902,3.102
0.986,-6.691,-1.748,3.104
1.05,-7.396,-1.577,3.106
0.999,-7.792,-1.553,3.107
0.822,-8.579,-1.572,3.199
0.684,-9.576,-1.654,3.201
0.648,-10.381,-1.683,3.203
0.548,-11.681,-1.683,3.204
0.031,-13.849,-1.891,3.206
0.138,-15.013,-0.727,3.299
0.469,-13.1,-4.246,3.301
1.654,-11.2,-3.969,3.303
2.523,-10.1,-3.715,3.304
2.985,-9.7,-3.523,3.307
2.002,-9.098,-5.82,3.399
1.01,-9.59,-5.498,3.401
0.796,-9.804,-4.961,3.403
0.635,-9.465,-5.653,3.422
0.871,-9.729,-4.306,3.425
1.621,-9.609,-1.488,3.499
1.685,-8.846,-1.962,3.504
1.549,-8.195,-2.345,3.506
1.424,-7.642,-2.718,3.508
1.513,-7.532,-2.719,3.509
1.6,-7.6,-2.5,3.599
1.479,-7.591,-2.312,3.601
1.508,-7.977,-2.169,3.602
1.646,-8.362,-2.115,3.604
2.676,-7.782,-2.782,3.606
2.927,-7.737,-3.037,3.704
3.159,-7.794,-3.094,3.705
3.063,-7.914,-3.014,3.707
2.949,-8.145,-3.245,3.709
3.298,-8.59,-3.49,3.71
3.684,-9.222,-3.222,3.799
3.631,-10.357,-3.357,3.805
3.212,-11.259,-3.459,3.818
2.31,-11.449,-3.949,3.82
1.408,-11.339,-4.739,3.823
1.892,-11.961,-4.961,3.9
3.259,-12.894,-4.094,3.901
4.198,-12.69,-3.29,3.903
3.788,-11.241,-3.241,3.904
3.073,-9.963,-3.563,3.908
2.437,-9.586,-3.886,3.999
1.804,-9.92,-4.02,4.001
1.286,-10.331,-4.131,4.002
-0.113,-10.868,-3.418,4.004
-0.668,-11.628,-0.891,4.1
-0.789,-11.609,-0.497,4.102
-0.637,-11.357,-0.081,4.103
-2.13,-10.397,-0.524,4.105
-1.894,-9.961,-0.315,4.107
-1.698,-9.554,-0.238,4.199
-1.733,-9.267,-0.367,4.201
-1.775,-8.819,-0.68,4.212
-1.816,-8.372,-0.993,4.214
-1.932,-8.043,-1.786,4.216
-0.791,-8.172,-0.726,4.3
-0.602,-7.732,-0.394,4.302
-0.391,-7.472,-0.226,4.304
-1.006,-7.286,0.331,4.305
-0.353,-6.86,1.619,4.311
-0.415,-6.889,2.134,4.399
-0.389,-7.558,2.625,4.401
-0.34,-8.145,3.064,4.407
-0.543,-8.892,3.523,4.408
-0.564,-9.502,3.894,4.41
-0.636,-9.898,3.806,4.499
-0.685,-9.911,3.566,4.501
-0.568,-10.249,3.853,4.503
-0.519,-11.136,4.392,4.504
-0.725,-12.257,4.83,4.506
1.134,-13.281,3.767,4.599
1.293,-12.604,3.347,4.61
1.085,-11.185,0.874,4.617
1.67,-9.97,0.248,4.618
2.119,-10.319,0.007,4.62
0.7,-10.892,-0.662,4.699
2.258,-11.193,0.696,4.701
1.528,-12.334,-1.195,4.703
1.699,-9.688,3.007,4.704
1.266,-9.992,2.538,4.706
0.98,-9.665,1.737,4.805
1.234,-8.708,2.162,4.807
1.348,-8.581,1.761,4.81
1.378,-8.64,1.452,4.811
1.258,-8.393,1.296,4.813
1.251,-8.306,1.246,4.899
1.265,-8.479,1.345,4.9
1.265,-8.479,1.345,4.902
1.49,-8.676,1.372,4.904
1.693,-8.613,1.251,4.905
2.643,-8.36,0.326,4.999
2.608,-8.545,0.17,5.001
2.832,-9.192,0.372,5.002
2.975,-9.753,0.298,5.004
2.696,-10.477,0.515,5.005
1.615,-11.086,2.392,5.099
2.917,-9.604,6.248,5.1
2.878,-8.57,6.765,5.102
2.983,-8.496,5.852,5.104
1.61,-9.662,5.488,5.105
1.21,-11.062,5.688,5.199
0.942,-12.148,5.95,5.2
0.87,-12.538,4.872,5.202
0.781,-11.824,3.395,5.204
0.445,-10.819,2.256,5.205
0.605,-10.135,-1.688,5.299
0.153,-10.387,-1.104,5.3
0.611,-10.909,0.103,5.302
0.611,-11.309,-1.097,5.304
0.289,-10.731,0.377,5.316
0.135,-11.351,1.617,5.399
0.163,-11.307,1.082,5.4
0.194,-10.675,1.397,5.402
0.315,-10.063,0.857,5.404
0.408,-9.867,0.804,5.405
1.3,-9.54,2.28,5.499
1.4,-9.34,2.38,5.5
1.24,-9.092,2.044,5.502
1.02,-8.876,1.832,5.504
-0.345,-8.566,1.002,5.512
-0.0,-8.0,0.9,5.598
0.206,-7.779,0.762,5.6
0.886,-7.271,2.057,5.606
0.953,-7.067,2.173,5.607
0.89,-6.681,2.305,5.728
0.938,-6.576,2.781,5.729
1.062,-6.524,3.219,5.731
1.042,-6.624,3.579,5.733
0.775,-7.09,4.212,5.744
-0.233,-7.167,5.167,5.819
-0.133,-7.367,5.167,5.821
-0.133,-7.567,5.267,5.826
-0.2,-7.4,5.7,5.828
-1.0,-8.2,6.0,5.829
-1.667,-9.933,6.033,5.831
-1.933,-11.467,7.667,5.833
-0.094,-13.66,5.821,5.897
0.857,-12.136,5.391,5.898
1.702,-10.453,4.64,5.9
1.191,-11.464,2.036,5.999
0.685,-12.106,1.294,6.0
0.809,-11.927,1.409,6.002
-0.482,-12.055,0.718,6.004
-1.125,-11.924,0.855,6.007
-2.897,-11.083,2.562,6.099
-2.558,-10.05,2.757,6.1
-1.525,-8.851,3.128,6.102
-0.34,-8.239,3.617,6.114
0.455,-7.668,3.981,6.116
1.229,-6.714,5.143,6.199
1.314,-7.357,4.971,6.2
1.392,-8.067,4.873,6.202
2.179,-7.81,5.004,6.21
0.716,-8.365,4.253,6.212
0.441,-8.563,3.633,6.299
0.478,-8.71,3.502,6.3
0.371,-8.786,3.557,6.302
0.112,-8.649,3.79,6.303
-0.022,-8.51,3.902,6.312
0.574,-7.664,5.571,6.401
0.579,-7.767,6.108,6.403
0.572,-6.506,7.484,6.406
0.299,-6.686,7.303,6.411
0.423,-6.926,7.63,6.413
0.077,-7.374,7.77,6.498
-0.281,-7.772,8.042,6.5
-0.516,-8.483,9.047,6.512
-0.607,-9.605,10.52,6.515
-0.716,-10.483,11.447,6.519
-2.204,-9.878,8.736,6.598
-1.651,-8.644,6.609,6.6
-1.7,-8.2,6.6,6.602
-1.958,-7.411,6.962,6.603
-1.639,-6.611,8.534,6.605
-3.415,-6.954,8.962,6.699
-3.155,-5.976,10.301,6.701
-3.247,-6.233,10.227,6.707
-3.164,-5.919,9.575,6.708
-2.904,-5.619,8.755,6.71
-2.438,-5.59,8.352,6.798
-2.255,-5.476,8.001,6.8
-1.959,-4.274,7.763,6.802
-1.941,-4.526,7.437,6.803
-1.696,-4.37,7.515,6.805
-1.8,-4.2,7.5,6.898
-2.07,-4.263,7.319,6.914
-1.937,-4.096,6.952,6.926
-1.667,-3.833,6.733,6.928
-1.207,-3.559,6.67,6.93
2.504,-2.47,6.785,6.998
2.452,-2.485,6.593,7.0
2.719,-2.552,6.526,7.002
3.119,-2.452,6.826,7.003
3.404,-2.57,7.485,7.005
3.667,-2.467,8.133,7.098
3.989,-2.289,8.344,7.1
4.607,-1.941,8.67,7.102
5.03,-1.563,9.981,7.103
4.056,-1.356,11.578,7.105
3.673,-2.904,12.704,7.198
5.127,-3.896,11.496,7.199
5.973,-2.604,8.704,7.202
6.151,-1.978,7.378,7.208
5.346,-2.069,7.784,7.299
5.544,-2.445,8.633,7.311
5.774,-2.478,9.731,7.313
5.291,-2.239,10.668,7.315
4.939,-2.333,11.204,7.323
5.94,0.326,9.871,7.398
5.96,-3.226,10.229,7.4
5.057,-0.529,8.614,7.401
5.284,0.089,7.829,7.403
4.49,-1.407,8.257,7.409
3.909,-0.221,8.211,7.499
3.926,0.136,8.032,7.5
3.93,0.326,8.187,7.502
3.943,0.594,8.053,7.504
4.155,2.306,7.67,7.506
4.404,2.472,7.685,7.598
4.533,2.477,7.476,7.6
4.409,2.012,7.34,7.601
4.265,1.787,7.581,7.603
4.305,1.84,7.656,7.605
5.545,1.945,6.936,7.698
5.455,2.155,7.464,7.7
6.045,3.745,7.636,7.701
6.609,3.909,8.427,7.703
6.1,3.8,8.8,7.705
5.527,3.227,8.682,7.798
5.291,2.991,8.773,7.8
5.627,2.927,9.482,7.801
4.095,2.86,11.344,7.803
6.582,3.082,11.045,7.811
6.318,2.518,10.655,7.898
5.009,1.509,9.027,7.904
3.967,2.167,7.467,7.907
3.804,2.178,7.408,7.908
3.93,3.249,7.953,7.91
4.194,4.032,8.739,7.998
4.573,4.734,9.528,8.0
5.013,5.635,10.023,8.001
4.702,5.789,9.554,8.003
4.288,5.159,8.704,8.015
2.884,7.089,6.545,8.097
3.193,7.118,6.292,8.099
3.413,6.668,7.139,8.101
3.609,6.177,8.585,8.102
3.604,6.191,9.054,8.104
5.033,7.143,7.939,8.198
4.933,7.096,7.851,8.199
4.667,7.169,7.208,8.201
4.3,6.847,6.888,8.203
4.262,5.084,7.163,8.208
3.995,4.451,6.729,8.298
3.807,3.929,6.499,8.3
3.784,3.462,6.274,8.301
3.662,3.484,6.063,8.303
3.586,3.741,5.802,8.305
3.629,5.614,4.143,8.398
3.318,6.012,3.59,8.4
3.404,6.255,3.319,8.401
3.784,6.915,3.219,8.413
4.219,8.176,3.195,8.415
4.564,9.375,4.119,8.499
3.891,8.704,6.484,8.508
4.364,7.235,5.495,8.51
6.235,5.046,4.595,8.512
6.902,4.18,3.928,8.513
7.0,4.482,3.729,8.598
6.867,5.645,3.714,8.6
6.733,7.231,4.492,8.601
6.735,9.277,5.047,8.607
6.642,10.936,5.127,8.609
4.117,12.13,1.709,8.698
6.739,9.943,4.07,8.7
8.022,8.113,7.261,8.705
5.143,7.526,1.222,8.708
4.878,7.287,0.439,8.71
5.172,6.863,3.195,8.798
4.84,6.968,3.393,8.806
4.272,7.063,2.795,8.818
4.091,7.227,2.809,8.821
3.946,7.583,3.187,8.823
3.863,8.031,0.886,8.897
3.807,7.687,0.667,8.899
4.008,7.47,0.362,8.9
3.352,7.983,-0.104,8.902
3.361,8.213,-0.022,8.998
3.348,8.817,-0.496,8.999
3.304,9.965,-0.909,9.001
3.422,11.226,-0.443,9.003
3.239,11.587,0.022,9.004
2.965,11.278,0.67,9.098
3.048,10.617,0.204,9.099
3.465,10.578,0.27,9.101
3.4,11.3,0.2,9.103
3.426,11.391,0.548,9.104
3.635,10.922,1.23,9.198
3.783,9.939,1.535,9.199
3.365,8.878,1.27,9.212
2.87,8.943,1.261,9.214
2.53,9.557,1.039,9.216
1.589,10.163,-0.289,9.298
1.9,10.7,-1.5,9.299
1.949,11.339,-1.782,9.301
1.502,11.923,-1.035,9.308
1.361,11.498,-1.028,9.31
2.192,11.339,-1.227,9.4
2.118,11.012,-0.988,9.402
1.663,10.486,-1.18,9.404
1.543,10.284,-0.449,9.406
1.698,10.01,0.143,9.413
1.612,9.492,1.289,9.498
1.545,9.185,1.332,9.499
1.387,8.527,1.284,9.501
1.456,7.796,1.295,9.503
1.509,7.329,0.837,9.504
1.957,6.894,-0.947,9.598
1.872,6.581,-1.34,9.613
1.743,6.306,-1.653,9.615
1.94,6.851,-1.926,9.616
1.96,7.349,-2.274,9.618
0.826,8.381,-2.64,9.698
0.66,8.93,-3.065,9.7
0.467,9.425,-3.362,9.701
0.214,10.415,-4.007,9.709
-0.091,12.343,-4.572,9.71
0.105,13.372,-4.636,9.798
0.613,12.34,-3.72,9.799
3.439,9.781,-3.721,9.801
3.812,9.341,-1.159,9.803
4.629,9.153,-1.747,9.804
4.469,9.757,-2.81,9.898
3.906,10.171,-3.129,9.899
3.137,10.414,-3.12,9.901
2.565,10.376,-3.224,9.903
2.255,9.725,-3.208,9.904
1.248,9.373,-2.774,9.998
1.537,8.893,-2.418,10.001
1.684,8.566,-2.192,10.003
1.483,8.324,-1.791,10.005
1.19,8.191,-1.395,10.01
1.8,7.82,-2.24,10.103
1.96,7.908,-2.456,10.105
1.96,8.068,-2.576,10.106
1.96,7.828,-2.396,10.108
2.04,7.792,-2.444,10.11
1.785,8.237,-1.143,10.198
1.951,8.456,-1.376,10.199
2.528,8.23,-2.025,10.201
2.596,8.609,-2.172,10.202
2.868,9.179,-2.547,10.204
4.425,9.299,-2.809,10.298
4.25,10.602,-3.882,10.318
4.334,12.035,-3.088,10.32
3.648,11.79,-2.789,10.321
3.659,11.138,-3.061,10.334
4.187,11.949,-4.063,10.397
4.134,12.435,-3.688,10.399
3.944,12.174,-2.632,10.401
3.62,10.679,-1.487,10.402
3.091,9.664,-0.621,10.404
1.34,9.649,-0.623,10.497
0.67,9.825,-1.161,10.498
0.598,10.254,-1.786,10.5
-0.45,9.762,-4.568,10.502
0.625,9.067,-6.769,10.598
0.892,9.133,-6.702,10.6
1.243,9.867,-6.439,10.602
0.48,9.233,-6.355,10.604
0.418,8.8,-5.671,10.606
-1.245,8.072,-5.39,10.697
-1.052,7.776,-4.895,10.699
-1.091,7.646,-4.857,10.701
-1.122,7.861,-4.676,10.702
-1.17,7.885,-4.381,10.713
-1.241,7.67,-4.138,10.802
-1.302,7.601,-4.176,10.803
-0.901,7.05,-4.338,10.805
-1.3,6.9,-4.0,10.808
-1.1,6.9,-4.1,10.81
-1.067,6.733,-3.833,10.897
-1.033,6.867,-3.867,10.904
-1.067,7.133,-4.033,10.905
-1.167,7.533,-4.333,10.907
-1.233,7.667,-4.767,10.909
-1.267,7.833,-5.033,11.003
-1.4,7.8,-5.0,11.004
-1.533,8.767,-5.767,11.006
-0.964,9.682,-8.252,11.008
-1.521,11.21,-8.838,11.01
-1.834,11.655,-6.402,11.098
-0.53,9.726,-4.991,11.107
0.747,8.796,-4.458,11.108
1.558,8.811,-4.125,11.119
1.274,8.998,-4.279,11.121
1.294,10.14,-2.379,11.197
1.624,10.495,-3.581,11.199
1.454,9.657,-6.109,11.201
2.264,11.995,-3.061,11.206
1.375,8.481,-5.484,11.207
1.52,7.3,-5.64,11.307
1.789,8.014,-3.877,11.31
1.551,8.786,-2.503,11.312
1.184,8.095,-3.001,11.314
0.838,7.852,-2.51,11.317
0.675,8.081,-2.084,11.397
1.089,8.014,-2.477,11.399
1.224,7.495,-2.781,11.401
1.357,7.029,-2.714,11.402
1.895,6.981,-2.624,11.404
2.049,7.314,-2.697,11.522
1.82,7.8,-2.74,11.525
1.776,8.605,-2.719,11.538
1.926,9.243,-3.051,11.54
2.047,9.667,-3.327,11.542
1.751,10.486,-3.903,11.622
1.49,11.138,-4.212,11.623
1.171,11.286,-4.343,11.625
0.982,11.248,-4.23,11.627
0.621,12.224,-4.775,11.628
0.22,13.8,-5.54,11.633
0.28,14.0,-5.46,11.695
0.45,12.962,-4.368,11.697
0.629,11.514,-3.757,11.698
-0.883,10.629,-1.534,11.7
1.001,10.604,0.636,11.797
-0.155,11.478,0.804,11.799
-0.492,14.432,3.885,11.8
-2.272,8.43,-4.825,11.802
-0.086,11.765,-1.612,11.804
-0.393,10.19,-7.067,11.897
0.928,12.299,-3.933,11.909
0.918,12.225,-3.567,11.912
0.888,12.004,-3.367,11.915
0.51,11.874,-2.667,11.917
0.741,11.999,-2.699,11.998
1.093,11.705,-2.705,11.999
2.06,10.676,-4.368,12.01
1.8,10.24,-4.32,12.013
2.02,9.912,-3.816,12.014
3.006,9.121,-4.26,12.097
3.957,8.991,-3.636,12.099
3.932,8.706,-2.598,12.1
5.67,6.788,-4.512,12.106
1.796,4.121,-6.262,12.108
2.104,2.179,-5.738,12.196
0.833,-0.333,-5.333,12.198
0.371,-3.043,-5.714,12.203
0.604,-4.821,-6.238,12.205
-1.288,-6.232,-5.529,12.322
-0.981,-5.222,-5.271,12.333
-0.564,-2.696,-6.786,12.334
-0.215,-3.123,-9.1,12.338
-1.989,-6.184,-8.071,12.339
-3.1,-8.812,-3.716,12.424
-2.0,-8.032,-3.176,12.425
-2.1,-7.472,-2.596,12.427
-1.7,-8.02,-2.86,12.432
-1.9,-8.88,-1.34,12.434
-1.7,-8.476,-2.368,12.435
-2.2,-8.42,-2.56,12.437
-1.214,-8.689,-3.083,12.522
-2.959,-9.925,-1.456,12.523
-3.885,-10.519,-2.311,12.525
-3.24,-9.783,-2.738,12.526
-3.138,-9.699,-2.626,12.528
-2.467,-10.061,-0.104,12.621
-1.772,-8.522,-0.734,12.623
-2.048,-7.32,-3.085,12.624
-2.785,-9.119,-2.311,12.637
-0.785,-9.762,-1.854,12.697
-0.292,-9.331,-1.477,12.733
-2.246,-9.815,-0.838,12.735
-1.023,-9.608,-0.869,12.737
-0.754,-8.985,-1.562,12.739
-1.515,-9.838,-0.546,12.802
-2.285,-10.162,-0.154,12.803
-1.831,-9.677,-0.292,12.805
-2.385,-9.862,-0.154,12.811
-0.658,-10.396,1.225,12.896
-1.962,-10.534,1.115,12.897
-1.292,-10.178,0.824,12.899
-1.502,-10.292,1.093,12.901
-2.554,-10.511,1.738,12.902
-2.289,-10.439,1.234,12.997
-1.711,-10.261,1.166,12.998
-1.228,-10.052,0.816,13.0
0.228,-9.548,0.384,13.001
0.448,-9.519,2.645,13.013
3.227,-8.196,-1.004,13.1
0.045,-9.808,0.908,13.102
0.671,-9.847,1.147,13.103
-0.582,-10.212,1.312,13.105
1.455,-9.392,0.592,13.107
0.665,-9.076,0.076,13.197
1.171,-8.847,0.547,13.198
1.639,-9.037,0.837,13.204
1.196,-9.786,0.786,13.21
0.598,-9.543,0.843,13.213
0.588,-9.044,1.231,13.303
0.981,-9.073,0.618,13.305
0.163,-9.088,0.765,13.306
0.837,-9.512,1.135,13.308
-1.488,-10.0,1.684,13.313
-1.56,-9.7,1.08,13.399
-0.528,-9.7,1.404,13.402
-1.256,-9.8,1.408,13.404
-1.284,-9.8,1.312,13.419
-0.572,-9.5,0.896,13.428
