vertical_Accel_x,vertical_Accel_y,vertical_Accel_z,accel_time_list
5.566,-7.927,-0.528,0.0
5.2,-9.6,1.4,0.003
4.895,-7.601,-2.473,0.005
5.704,-7.059,-3.022,0.007
7.098,-9.72,1.111,0.102
4.639,-9.232,0.606,0.104
4.494,-7.261,-0.268,0.106
5.46,-8.128,-1.101,0.107
5.809,-8.118,-1.343,0.109
5.34,-7.872,-1.099,0.111
5.062,-8.008,-0.512,0.204
5.131,-8.054,-0.456,0.205
5.474,-8.045,-0.871,0.207
5.606,-8.139,-0.932,0.209
5.471,-8.126,-0.755,0.21
5.267,-8.067,-0.633,0.305
5.12,-8.056,-0.802,0.307
5.132,-7.894,-0.861,0.308
4.995,-7.801,-0.973,0.31
4.661,-7.568,-0.906,0.322
3.685,-7.243,-1.225,0.404
2.656,-6.869,-1.08,0.405
2.48,-7.344,-0.898,0.407
3.352,-8.11,-0.458,0.408
3.584,-8.915,-0.445,0.414
3.167,-7.829,-0.891,0.501
2.745,-6.782,-1.918,0.503
1.653,-7.367,-2.427,0.504
1.302,-7.152,-2.744,0.506
0.72,-5.9,-3.46,0.507
1.659,-4.965,-4.4,0.6
2.349,-5.937,-4.533,0.602
2.392,-7.698,-4.067,0.604
2.092,-7.198,-2.367,0.605
2.186,-7.022,-1.667,0.607
2.598,-7.48,-2.107,0.701
2.821,-8.588,-3.637,0.703
0.964,-6.974,-5.109,0.704
-1.793,-5.159,-5.68,0.714
-3.541,-5.734,-6.022,0.716
-0.411,-6.711,-8.144,0.801
0.033,-8.867,-8.067,0.803
-0.0,-8.2,-7.4,0.804
-1.276,-6.547,-7.446,0.806
-2.589,-5.391,-7.46,0.808
-1.674,-3.191,-8.948,0.903
-2.739,-2.513,-9.378,0.905
-3.73,-2.143,-9.061,0.906
-4.158,-1.747,-10.025,0.908
-2.882,-1.28,-11.916,0.914
-4.264,5.374,-12.369,1.001
-0.766,3.896,-12.781,1.008
-0.734,5.604,-14.719,1.01
-2.774,5.286,-14.13,1.012
-0.507,5.079,-13.893,1.013
3.459,5.441,-11.888,1.105
2.196,6.204,-11.827,1.107
2.853,6.547,-12.029,1.12
5.029,6.371,-10.994,1.121
5.741,6.459,-10.312,1.123
3.914,6.086,-10.204,1.204
4.103,5.493,-10.155,1.206
3.661,4.378,-9.908,1.208
4.5,3.936,-8.852,1.209
4.0,3.564,-8.648,1.211
2.573,3.554,-9.104,1.301
2.213,4.074,-8.704,1.302
1.949,4.403,-8.37,1.304
1.473,4.754,-8.104,1.306
1.21,5.179,-7.743,1.307
-0.233,5.133,-7.733,1.401
-0.124,5.024,-7.365,1.403
-0.527,5.227,-7.292,1.405
-0.776,5.476,-7.035,1.406
-0.095,6.588,-6.41,1.501
-0.219,7.09,-7.278,1.502
-0.424,8.142,-8.888,1.512
-0.048,9.184,-9.975,1.514
0.533,9.173,-9.453,1.521
0.671,8.114,-8.057,1.601
0.238,7.421,-7.244,1.602
0.143,7.269,-6.834,1.605
-0.114,7.137,-7.969,1.606
-0.576,6.798,-9.032,1.608
-1.051,1.922,-11.278,1.701
-2.173,1.796,-12.004,1.702
-2.118,1.988,-12.012,1.707
-1.343,1.049,-11.751,1.709
-1.269,-2.977,-10.208,1.711
-1.377,-2.508,-9.531,1.801
-1.154,-1.915,-8.562,1.802
-0.654,-1.915,-7.862,1.804
-0.377,-2.008,-7.931,1.806
-0.2,-1.5,-7.9,1.807
-1.839,-2.037,-7.198,1.901
-1.71,-1.894,-7.084,1.91
-1.445,-2.253,-7.108,1.912
-1.373,-2.596,-7.022,1.914
-1.535,-2.659,-7.024,1.915
-2.048,-3.482,-6.564,2.001
-2.219,-3.765,-6.83,2.002
-2.471,-4.023,-7.446,2.004
-2.929,-4.197,-8.094,2.006
-3.686,-4.431,-9.163,2.007
-1.748,-3.576,-11.27,2.101
-1.432,-3.634,-11.824,2.102
-1.258,-3.621,-12.123,2.104
-1.252,-3.824,-12.73,2.11
-1.259,-4.271,-13.355,2.112
-0.262,-2.646,-13.985,2.206
0.562,-2.954,-13.315,2.208
0.415,-2.738,-12.454,2.21
-0.162,-2.146,-10.785,2.211
-1.054,-0.915,-9.062,2.213
1.2,-0.536,-7.552,2.301
1.0,-0.588,-7.016,2.303
0.8,-0.46,-8.72,2.322
-0.0,-1.132,-11.024,2.323
-0.4,-1.496,-12.272,2.325
-0.121,0.403,-12.179,2.4
-1.225,0.404,-11.072,2.402
-0.763,0.595,-10.042,2.403
-1.41,0.968,-8.953,2.405
-0.406,3.226,-7.554,2.407
-0.086,2.973,-6.74,2.501
-0.291,2.961,-6.368,2.502
-0.402,2.875,-6.351,2.504
-0.646,2.931,-6.484,2.505
-0.561,3.033,-6.596,2.507
0.077,3.931,-6.292,2.6
0.415,3.746,-6.438,2.602
0.9,3.6,-6.5,2.604
1.023,3.769,-6.908,2.605
0.823,4.169,-7.808,2.615
3.341,4.188,-8.659,2.7
3.822,4.951,-9.878,2.702
3.612,5.482,-11.088,2.704
2.982,5.976,-12.118,2.705
2.663,6.139,-13.437,2.707
1.348,4.179,-15.452,2.8
1.288,3.73,-15.112,2.802
1.435,3.195,-12.965,2.804
1.527,2.982,-10.873,2.805
1.755,2.364,-9.645,2.812
1.589,1.844,-8.711,2.901
1.166,1.719,-8.834,2.903
0.606,2.085,-9.394,2.904
0.349,2.393,-9.151,2.911
0.502,2.728,-8.798,2.913
0.56,1.92,-9.4,3.0
0.548,2.236,-9.5,3.002
0.672,2.304,-8.7,3.004
0.892,2.344,-7.8,3.014
1.028,2.096,-7.4,3.022
-1.141,2.006,-7.294,3.1
-1.388,1.741,-7.859,3.101
-1.553,1.765,-8.435,3.104
-1.533,1.633,-8.967,3.107
-1.524,1.518,-9.182,3.2
-1.394,1.171,-9.129,3.202
-1.386,-0.436,-8.785,3.204
-1.257,-0.624,-8.59,3.205
-1.355,-0.757,-8.859,3.207
-2.123,-2.092,-9.169,3.31
-2.531,-2.123,-9.892,3.312
-2.792,-2.069,-10.577,3.314
-2.877,-1.908,-11.131,3.315
-2.7,-1.9,-11.3,3.317
-2.345,-0.443,-11.441,3.401
-2.324,-0.396,-11.768,3.403
-2.047,-0.409,-12.271,3.405
-1.061,-0.256,-11.851,3.414
0.343,-0.524,-11.19,3.416
3.928,-0.104,-9.0,3.5
3.104,-0.072,-7.9,3.502
1.964,-0.052,-7.6,3.503
0.756,0.092,-8.2,3.505
-0.096,0.028,-9.7,3.51
-0.412,0.016,-11.4,3.603
-0.232,0.276,-12.9,3.604
0.524,0.368,-12.4,3.606
1.568,0.376,-10.4,3.608
2.172,0.304,-9.1,3.609
-0.198,0.857,-8.443,3.705
-0.255,1.008,-7.692,3.706
-0.446,2.131,-6.884,3.708
-0.177,3.069,-6.408,3.71
-0.377,3.269,-6.508,3.711
-0.269,3.492,-6.677,3.8
0.046,3.638,-6.815,3.806
0.262,3.685,-6.854,3.815
0.438,3.815,-6.746,3.822
0.4,3.9,-6.6,3.824
1.838,5.13,-6.086,3.899
1.994,5.818,-7.417,3.901
2.668,6.651,-8.996,3.903
3.34,7.257,-9.581,3.904
3.202,7.727,-9.594,3.906
2.435,8.089,-9.895,4.001
2.285,7.896,-10.644,4.006
2.38,7.415,-12.061,4.008
1.5,5.44,-15.08,4.009
1.2,5.376,-15.932,4.011
1.2,5.096,-12.472,4.102
1.2,4.14,-8.48,4.104
1.0,3.412,-5.984,4.107
1.0,3.316,-6.012,4.108
-0.0,4.18,-8.26,4.11
-0.708,6.491,-9.723,4.2
-1.135,7.311,-10.905,4.21
-0.294,7.482,-10.583,4.211
0.663,6.783,-9.111,4.213
1.117,6.145,-7.848,4.223
-0.438,4.285,-7.454,4.301
-0.392,3.123,-6.769,4.303
-0.492,2.423,-6.869,4.304
-0.608,2.177,-7.031,4.308
-0.708,2.477,-7.231,4.313
-0.631,2.808,-6.923,4.4
-0.523,3.231,-6.592,4.402
-0.291,2.257,-6.826,4.408
-0.375,2.076,-6.841,4.409
-0.59,1.752,-7.062,4.411
-1.056,1.781,-7.465,4.501
-1.382,2.01,-8.388,4.504
-1.626,2.329,-9.523,4.506
-1.674,2.771,-10.577,4.507
-1.112,2.762,-10.93,4.509
-0.485,4.046,-10.338,4.6
-0.2,3.8,-10.6,4.602
0.062,3.585,-10.954,4.603
-0.377,3.669,-12.008,4.605
-0.854,4.138,-12.815,4.607
2.384,2.774,-13.116,4.703
2.332,3.053,-12.168,4.704
2.023,2.925,-10.977,4.707
1.426,2.868,-9.274,4.709
0.1,4.036,-7.052,4.808
-0.6,3.728,-5.996,4.81
-0.7,3.692,-6.944,4.812
-1.1,3.94,-9.58,4.813
-1.3,4.268,-11.776,4.815
-0.794,6.282,-11.683,4.9
0.202,5.927,-10.494,4.902
1.275,5.347,-9.076,4.903
2.175,5.047,-7.976,4.905
2.489,4.95,-7.132,4.907
1.433,5.067,-6.533,5.0
1.311,4.956,-6.011,5.005
1.642,5.505,-5.063,5.007
1.347,5.688,-5.161,5.009
1.205,5.803,-5.438,5.012
1.068,5.601,-5.813,5.101
1.089,5.534,-6.104,5.103
1.374,5.464,-6.171,5.104
1.516,5.089,-6.074,5.106
1.537,5.022,-6.365,5.108
0.68,4.8,-8.26,5.2
0.458,5.789,-9.538,5.201
0.418,6.589,-10.258,5.203
0.511,6.856,-9.911,5.205
2.114,6.39,-9.459,5.21
1.646,6.639,-9.363,5.3
1.421,6.599,-9.936,5.303
1.482,6.542,-11.055,5.304
1.557,6.502,-11.728,5.306
1.583,6.569,-11.15,5.316
1.618,6.458,-9.445,5.403
1.473,5.819,-7.982,5.405
1.034,5.376,-7.098,5.407
0.521,5.199,-6.536,5.408
-0.001,5.086,-6.603,5.41
-0.236,4.997,-7.308,5.499
-0.363,5.017,-8.289,5.501
-0.352,5.366,-9.557,5.502
-0.079,6.099,-10.536,5.504
0.802,4.714,-10.798,5.506
-1.925,3.341,-9.844,5.6
-1.478,3.272,-9.034,5.601
-1.55,3.119,-8.513,5.603
-1.427,2.616,-7.895,5.609
-1.315,2.164,-7.686,5.611
-1.425,2.141,-7.344,5.701
-1.398,2.125,-7.249,5.703
-1.345,2.093,-7.058,5.705
-1.276,2.097,-7.182,5.715
-1.235,2.117,-7.401,5.717
-0.976,2.097,-7.582,5.8
-0.855,2.007,-7.842,5.805
-1.032,2.004,-8.424,5.806
-1.5,2.3,-9.4,5.808
-1.868,2.796,-10.476,5.81
-2.13,3.229,-11.172,5.9
-1.988,3.449,-11.491,5.901
-1.708,3.201,-11.506,5.903
-1.699,2.962,-12.074,5.908
-1.77,2.771,-12.928,5.91
2.324,2.339,-12.876,6.001
2.727,2.282,-12.173,6.003
2.839,2.252,-10.661,6.006
2.625,2.054,-9.075,6.007
1.904,1.857,-7.696,6.009
0.78,1.717,-7.02,6.1
-0.404,1.943,-7.404,6.101
-1.166,2.381,-8.966,6.111
-1.388,2.37,-10.788,6.112
-1.4,2.4,-12.4,6.114
0.071,4.194,-12.329,6.2
0.367,3.724,-10.771,6.208
2.122,2.908,-9.324,6.21
2.023,2.669,-8.608,6.211
2.338,2.615,-7.946,6.213
1.854,2.662,-7.485,6.3
1.162,2.785,-7.054,6.301
0.243,4.189,-6.394,6.303
-0.243,4.491,-6.346,6.309
-0.581,4.73,-6.482,6.311
0.5,4.9,-6.5,6.4
0.707,4.833,-6.447,6.401
0.724,4.922,-6.404,6.407
0.658,5.189,-6.938,6.409
0.536,5.678,-7.916,6.499
0.604,6.322,-9.064,6.501
0.618,6.489,-9.658,6.511
0.767,6.433,-9.367,6.512
0.769,6.044,-8.549,6.514
1.9,5.3,-8.2,6.599
1.854,5.061,-8.637,6.601
1.818,5.058,-9.845,6.603
1.883,5.769,-10.95,6.604
2.057,6.402,-11.428,6.606
2.352,6.934,-10.743,6.7
2.504,7.054,-9.588,6.701
2.813,6.877,-8.562,6.707
2.756,6.288,-7.731,6.709
2.285,5.696,-7.244,6.711
1.403,5.141,-7.191,6.799
0.133,4.762,-7.401,6.801
-0.337,5.083,-7.711,6.803
-0.311,5.45,-8.532,6.804
0.096,5.746,-9.812,6.806
-3.098,3.125,-11.549,6.9
-2.384,3.398,-11.388,6.918
-1.218,3.277,-10.263,6.92
-0.464,2.946,-9.373,6.921
-0.272,2.447,-8.879,6.923
-0.049,2.144,-8.361,7.0
-0.189,1.986,-7.717,7.002
-0.758,2.12,-7.219,7.003
-1.45,2.281,-6.787,7.005
-2.036,2.254,-6.627,7.007
-2.227,2.216,-6.895,7.099
-1.849,2.044,-7.661,7.101
-1.596,1.75,-8.097,7.103
-1.116,1.902,-8.312,7.105
-0.917,2.24,-8.838,7.107
-0.978,1.125,-9.875,7.199
-0.812,1.159,-10.441,7.2
-0.59,0.984,-10.616,7.202
-0.194,0.771,-10.529,7.208
-0.167,0.767,-10.433,7.21
-0.394,2.374,-10.646,7.3
-0.846,2.831,-11.284,7.301
-1.609,3.339,-11.932,7.303
-1.018,3.577,-12.163,7.305
-0.647,2.568,-11.91,7.311
2.665,2.405,-10.135,7.399
2.137,2.123,-8.363,7.401
1.7,2.924,-7.168,7.403
1.3,3.504,-7.728,7.404
0.6,4.116,-9.112,7.406
0.67,6.179,-9.49,7.499
0.368,7.051,-10.096,7.501
0.811,7.35,-10.168,7.502
1.689,6.95,-9.332,7.504
2.446,6.239,-7.763,7.506
1.698,5.889,-6.718,7.6
1.838,5.389,-6.198,7.602
1.647,5.233,-6.027,7.603
1.356,4.678,-6.156,7.605
0.936,4.678,-6.216,7.614
0.744,5.322,-6.544,7.699
0.707,5.633,-6.947,7.701
1.961,5.556,-7.317,7.706
2.186,5.71,-7.241,7.708
2.186,5.71,-7.241,7.709
1.807,5.895,-7.28,7.799
1.254,6.361,-7.637,7.801
0.991,6.778,-8.226,7.802
0.848,6.666,-9.157,7.807
0.756,6.188,-10.031,7.81
0.3,4.304,-10.828,7.9
0.4,3.668,-10.076,7.901
0.5,3.088,-9.516,7.903
0.683,1.26,-10.117,7.909
0.789,1.344,-10.811,7.911
1.049,1.793,-11.351,7.999
1.524,2.339,-12.076,8.001
1.77,3.376,-12.43,8.002
1.721,4.397,-11.679,8.015
1.499,4.886,-10.601,8.017
1.275,4.646,-9.425,8.099
1.262,3.763,-8.238,8.102
0.928,1.396,-7.7,8.104
0.196,0.672,-7.6,8.106
-2.657,0.551,-7.649,8.199
-3.245,0.592,-8.208,8.2
-3.42,0.831,-8.669,8.202
-3.502,1.143,-9.257,8.204
-3.786,1.598,-10.302,8.205
-3.899,-0.017,-11.235,8.299
-2.981,0.48,-11.258,8.3
-1.576,0.696,-10.132,8.302
-1.091,0.749,-8.812,8.304
-1.184,0.931,-7.754,8.305
-1.44,0.673,-7.014,8.399
-1.442,0.207,-6.745,8.4
-1.485,-0.052,-7.12,8.402
-1.517,-0.214,-7.511,8.411
-1.503,-0.45,-7.696,8.413
-1.523,-1.592,-7.869,8.498
-1.523,-1.692,-8.169,8.507
-1.769,-1.777,-8.608,8.508
-2.192,-1.669,-9.577,8.51
-2.715,-1.462,-10.646,8.511
0.284,-1.81,-11.984,8.599
0.72,-1.763,-12.12,8.6
1.706,-0.215,-11.806,8.602
2.735,-0.805,-12.035,8.608
3.373,-1.282,-11.873,8.61
2.458,-1.294,-11.458,8.699
0.925,-0.746,-12.025,8.7
-0.159,0.08,-13.041,8.707
-0.456,0.822,-13.144,8.709
-0.1,1.3,-11.6,8.711
-0.2,3.0,-9.2,8.798
0.2,2.5,-7.5,8.806
0.3,1.9,-7.0,8.816
0.1,1.5,-7.8,8.818
-0.4,1.4,-9.2,8.819
-0.9,1.5,-10.8,8.898
-1.0,1.6,-12.0,8.9
-0.459,0.18,-11.941,8.902
0.687,0.516,-10.587,8.903
1.451,1.007,-9.251,8.905
0.278,2.175,-8.525,8.999
0.535,2.124,-7.976,9.001
0.516,2.355,-7.545,9.002
1.19,2.486,-7.507,9.004
0.579,2.772,-7.914,9.006
0.552,1.821,-8.752,9.099
-0.061,1.752,-9.139,9.101
-0.274,1.668,-9.226,9.102
-0.387,1.584,-9.213,9.104
-0.304,0.173,-9.196,9.105
-0.527,-1.381,-9.118,9.199
-0.392,-1.891,-9.223,9.209
-0.255,-2.475,-9.734,9.211
-0.309,-3.022,-10.474,9.232
-0.247,-3.452,-11.16,9.234
-0.177,-6.485,-9.813,9.299
-0.073,-6.322,-9.435,9.301
-0.184,-6.273,-9.081,9.302
-0.386,-6.311,-9.168,9.304
-1.949,-6.441,-8.896,9.313
-1.727,-6.339,-8.906,9.4
-1.567,-6.006,-8.969,9.402
-1.545,-5.704,-9.38,9.403
-1.694,-5.645,-10.076,9.405
0.041,-6.006,-10.006,9.407
0.048,-5.913,-8.343,9.499
0.009,-4.348,-7.226,9.5
-0.5,-3.5,-6.4,9.503
-1.274,-3.443,-5.978,9.504
-1.913,-4.778,-6.261,9.506
-2.985,-8.509,-5.66,9.599
-3.392,-10.955,-6.73,9.602
-3.149,-11.494,-7.104,9.603
-2.138,-10.826,-7.249,9.605
-1.949,-10.194,-7.504,9.607
-3.274,-9.242,-6.026,9.7
-2.462,-8.213,-4.958,9.702
-2.115,-7.328,-4.005,9.709
-2.064,-6.445,-3.416,9.711
-2.658,-6.106,-2.726,9.799
-3.155,-6.37,-3.092,9.8
-3.749,-6.966,-3.742,9.802
-3.896,-7.464,-4.166,9.804
-3.904,-7.836,-4.434,9.805
-2.493,-8.642,-3.422,9.9
-1.931,-8.468,-2.908,9.903
-1.756,-8.353,-2.633,9.905
-1.873,-8.642,-2.582,9.907
-2.201,-8.737,-2.697,9.909
-2.583,-9.111,-2.951,9.999
-2.58,-9.2,-3.06,10.0
-2.251,-8.968,-3.148,10.002
-1.832,-8.905,-3.005,10.004
0.104,-9.58,-1.42,10.009
2.063,-9.886,-0.614,10.104
3.949,-10.141,1.573,10.106
3.131,-11.13,1.859,10.108
0.806,-12.71,1.423,10.111
-0.918,-14.589,0.686,10.113
1.243,-14.929,0.114,10.199
1.334,-12.641,-0.307,10.2
1.044,-10.04,-0.296,10.202
0.666,-8.459,-0.293,10.204
-0.215,-7.746,-0.362,10.205
-1.4,-7.8,-1.0,10.299
-1.4,-9.0,-0.8,10.3
-1.4,-10.9,-0.5,10.306
-1.0,-12.4,-0.5,10.308
0.1,-12.3,-0.9,10.318
-0.286,-11.031,-1.469,10.399
1.106,-10.071,-2.229,10.4
1.612,-9.041,-2.659,10.403
1.443,-8.084,-2.916,10.406
0.888,-7.359,-3.041,10.408
0.082,-6.988,-3.312,10.498
-0.629,-7.047,-3.453,10.499
-1.073,-7.263,-3.537,10.501
-1.498,-7.69,-3.41,10.503
-1.771,-8.253,-3.147,10.504
-0.848,-8.877,-2.119,10.598
-0.826,-8.961,-1.89,10.6
-0.137,-9.263,-0.427,10.601
0.069,-9.669,0.114,10.603
0.196,-10.096,0.539,10.605
-0.632,-10.258,2.055,10.698
-0.409,-10.569,2.495,10.7
-0.149,-10.596,2.844,10.701
0.215,-10.38,3.334,10.713
0.508,-9.84,3.817,10.716
2.498,-8.075,5.914,10.805
2.503,-8.037,5.778,10.806
2.171,-8.454,5.502,10.808
1.813,-9.461,5.206,10.81
0.749,-11.194,4.754,10.811
-1.216,-13.067,2.847,10.899
-1.009,-12.981,1.384,10.907
-0.351,-10.898,-0.24,10.908
0.179,-9.058,-1.212,10.91
0.358,-8.016,-1.323,10.912
-0.404,-7.162,-0.195,11.003
-0.702,-6.481,0.753,11.005
-1.162,-6.865,1.802,11.007
-1.8,-8.4,3.0,11.008
-2.302,-8.912,6.025,11.015
-1.904,-9.484,7.837,11.098
-1.892,-9.833,7.927,11.104
-1.884,-9.865,7.353,11.114
-2.127,-9.694,6.939,11.116
-2.108,-8.867,6.473,11.117
-2.601,-6.804,7.014,11.199
-2.304,-6.117,6.556,11.201
-1.96,-5.741,6.383,11.203
-1.753,-5.611,6.385,11.204
-1.753,-5.611,6.385,11.206
-2.529,-4.694,6.997,11.302
-2.51,-4.785,6.959,11.303
-2.238,-4.999,6.816,11.305
-1.89,-5.115,6.741,11.307
0.618,-5.258,6.945,11.398
0.863,-5.583,7.011,11.404
1.659,-6.415,6.281,11.407
1.541,-6.485,6.719,11.409
1.2,-6.9,7.2,11.411
0.313,-6.277,8.362,11.498
0.101,-6.214,8.397,11.499
0.068,-5.951,8.296,11.509
0.118,-5.658,8.645,11.511
0.283,-5.555,9.452,11.518
2.311,-5.489,9.756,11.598
2.584,-5.576,10.222,11.599
4.207,-5.667,10.613,11.601
4.319,-6.376,10.495,11.603
4.596,-6.205,9.221,11.604
4.549,-5.514,7.483,11.698
4.106,-4.943,6.169,11.699
3.539,-4.476,5.535,11.701
2.806,-4.443,5.569,11.703
2.243,-4.771,6.414,11.704
1.99,-5.538,7.308,11.798
2.089,-6.414,8.263,11.799
2.62,-7.2,9.34,11.801
3.442,-7.348,9.57,11.803
4.188,-6.79,9.218,11.804
3.604,-6.436,8.822,11.899
3.802,-5.718,8.111,11.91
3.447,-5.373,7.333,11.913
2.862,-5.298,6.811,11.915
2.302,-5.218,6.511,11.917
1.738,-5.502,6.489,11.998
1.278,-5.722,6.589,12.0
1.222,-5.778,6.911,12.002
1.167,-5.833,7.233,12.003
1.369,-5.751,7.344,12.005
0.682,-4.276,8.118,12.097
1.096,-3.873,7.904,12.099
0.876,-2.461,8.024,12.101
1.028,-2.096,7.772,12.102
1.099,-1.886,7.801,12.104
0.989,-1.844,8.111,12.199
0.923,-2.125,8.577,12.202
1.058,-2.406,9.242,12.204
1.208,-2.813,10.092,12.206
1.437,-3.023,10.363,12.207
4.583,-2.986,9.289,12.298
4.67,-3.005,8.84,12.3
4.558,-3.107,8.755,12.303
4.388,-3.202,9.216,12.31
4.419,-3.38,10.342,12.312
4.461,-3.656,11.451,12.398
4.381,-3.92,11.758,12.4
4.101,-4.083,10.665,12.405
3.55,-4.042,8.733,12.407
2.874,-3.538,7.001,12.408
2.361,-3.156,6.151,12.502
1.994,-3.001,6.808,12.504
2.062,-2.84,9.017,12.506
2.39,-2.768,11.347,12.507
2.956,-3.041,12.825,12.509
-0.435,-0.205,13.865,12.6
-0.16,-0.766,13.24,12.605
0.152,-0.921,11.852,12.607
0.38,-0.517,10.18,12.612
0.491,0.027,8.891,12.624
0.527,0.418,8.027,12.698
0.615,0.488,7.715,12.7
0.515,0.488,7.815,12.701
0.428,0.404,8.028,12.703
0.229,0.39,8.129,12.704
0.138,0.523,8.213,12.798
0.126,0.578,8.609,12.799
0.407,0.935,8.669,12.801
0.686,1.03,8.462,12.806
0.859,0.89,8.486,12.807
0.885,0.868,8.995,12.898
0.909,0.859,9.603,12.901
1.264,0.801,9.621,12.904
1.88,1.095,8.993,12.906
1.978,1.371,9.059,12.913
2.048,-0.236,10.2,12.997
1.872,-0.704,11.3,12.998
1.272,-1.504,12.3,13.0
0.672,-2.304,14.2,13.01
0.342,-4.794,13.758,13.101
0.782,-4.245,12.518,13.103
0.904,-3.557,10.696,13.104
2.04,-2.323,8.782,13.106
3.26,-1.373,7.786,13.108
3.033,-2.533,8.433,13.197
2.841,-2.941,9.888,13.205
2.578,-3.478,10.349,13.207
-0.5,-3.656,10.392,13.209
-0.4,-3.872,9.704,13.211
0.307,-5.395,7.88,13.297
0.648,-5.366,6.457,13.306
0.802,-5.527,5.394,13.308
1.023,-5.526,4.73,13.325
1.138,-5.53,4.286,13.327
1.436,-6.705,2.72,13.398
1.751,-6.919,3.043,13.406
2.059,-7.12,3.507,13.407
2.352,-7.132,3.739,13.419
2.564,-7.295,3.98,13.42
2.565,-7.358,4.439,13.497
2.214,-7.856,5.382,13.501
1.938,-8.551,6.789,13.508
1.948,-9.094,8.129,13.509
3.741,-8.381,9.185,13.511
3.538,-6.399,10.016,13.597
3.533,-5.487,9.427,13.599
3.781,-4.93,10.082,13.601
3.643,-5.291,10.746,13.602
3.433,-6.287,10.327,13.604
4.011,-8.222,9.078,13.697
4.0,-9.1,8.4,13.699
3.881,-9.163,7.17,13.7
3.726,-8.952,5.881,13.702
3.411,-8.322,5.278,13.704
2.542,-6.538,6.511,13.798
1.38,-5.84,7.3,13.799
0.271,-5.769,8.456,13.809
-0.091,-5.971,9.444,13.811
0.253,-6.227,10.267,13.818
-1.232,-2.847,12.132,13.898
-0.543,-2.692,11.743,13.899
0.249,-2.493,10.451,13.901
0.728,-2.196,8.872,13.903
1.071,-1.69,7.829,13.904
1.124,-1.339,7.576,13.998
0.617,-1.34,7.783,13.999
0.168,-1.747,8.032,14.001
-0.141,-2.42,8.141,14.006
-0.113,-2.616,8.113,14.008
-0.422,-2.816,8.236,14.099
-0.333,-2.553,8.293,14.103
-0.022,-2.136,7.996,14.104
0.322,-1.824,7.784,14.106
0.467,-1.413,7.773,14.108
-0.622,-1.41,8.068,14.223
-0.564,-1.519,8.375,14.233
-0.639,-1.795,8.616,14.234
-0.539,-1.995,8.916,14.236
-0.53,-2.052,9.642,14.237
2.512,-3.282,9.888,14.315
2.771,-3.594,10.829,14.316
3.116,-4.21,11.784,14.318
3.3,-5.0,12.8,14.32
3.675,-5.322,13.525,14.321
3.771,-5.294,13.529,14.329
5.241,-5.141,10.688,14.396
3.225,-4.625,8.078,14.398
2.369,-3.869,6.28,14.4
2.084,-3.084,6.49,14.401
2.241,-2.441,8.588,14.497
2.314,-2.914,10.596,14.503
2.594,-3.494,11.859,14.504
2.871,-5.906,11.803,14.506
0.3,-7.728,10.149,14.598
0.6,-7.658,7.955,14.608
0.6,-7.217,6.109,14.61
0.5,-6.955,4.742,14.62
0.4,-6.479,3.977,14.622
0.376,-6.502,2.52,14.697
0.406,-5.924,2.645,14.701
0.369,-5.678,3.276,14.703
0.543,-5.971,4.114,14.709
0.894,-6.276,4.555,14.711
1.341,-6.363,4.933,14.798
1.704,-6.116,5.063,14.8
1.606,-6.124,5.045,14.802
1.131,-6.622,5.624,14.804
0.863,-7.453,6.331,14.805
3.592,-8.027,6.667,14.898
3.88,-8.816,7.118,14.9
3.655,-9.296,7.02,14.902
3.214,-9.329,6.557,14.903
2.82,-8.984,6.282,14.905
2.055,-7.919,7.813,14.997
2.494,-8.474,9.316,14.999
2.811,-9.143,10.64,15.005
1.759,-11.463,9.033,15.007
1.808,-11.267,7.573,15.008
2.656,-10.238,4.232,15.097
2.396,-8.377,3.05,15.102
1.817,-7.199,2.215,15.104
1.159,-6.855,1.97,15.106
0.432,-7.892,2.917,15.107
0.166,-7.762,6.653,15.197
0.101,-8.504,8.114,15.199
0.481,-9.223,9.148,15.201
1.205,-9.222,9.27,15.202
1.618,-8.173,8.938,15.204
0.2,-3.752,10.364,15.306
0.3,-2.664,9.848,15.308
0.5,-2.14,9.48,15.309
0.3,-2.124,9.068,15.311
-0.0,-2.52,8.64,15.321
-0.184,-4.017,7.853,15.397
-0.326,-4.333,7.279,15.4
-0.278,-4.613,6.933,15.402
-0.809,-4.017,7.051,15.404
-0.297,-3.756,6.769,15.406
0.128,-4.115,6.029,15.497
0.55,-3.606,5.913,15.499
0.708,-3.384,6.169,15.501
0.428,-3.715,6.629,15.502
-0.24,-4.265,7.13,15.504
0.64,-4.926,7.751,15.598
0.745,-5.281,8.362,15.601
0.947,-5.509,8.817,15.603
0.087,-6.233,9.607,15.605
2.048,-6.166,10.657,15.607
2.499,-6.586,11.003,15.703
2.697,-6.559,11.009,15.705
2.732,-6.749,10.704,15.707
2.379,-7.001,10.164,15.717
1.87,-6.679,8.79,15.719
2.037,-7.146,5.775,15.797
1.414,-6.056,5.282,15.799
0.906,-5.726,6.084,15.8
0.378,-6.214,7.92,15.805
0.39,-7.061,9.174,15.807
0.771,-7.384,9.623,15.897
1.243,-7.472,9.359,15.899
2.042,-7.568,8.545,15.9
2.889,-7.657,7.36,15.902
3.478,-7.614,5.82,15.904
4.296,-7.663,3.684,15.999
3.996,-7.463,2.984,16.001
3.229,-7.257,2.814,16.003
2.339,-7.349,2.955,16.004
1.843,-7.286,3.271,16.006
1.492,-7.327,3.867,16.101
1.541,-7.367,4.363,16.103
1.696,-7.463,4.784,16.116
1.886,-7.271,5.043,16.118
2.351,-6.959,5.204,16.12
1.0,-5.87,6.594,16.198
1.1,-5.858,6.955,16.2
1.0,-6.143,7.602,16.202
0.8,-6.683,8.091,16.203
0.7,-6.842,8.345,16.205
0.7,-6.725,8.536,16.296
1.15,-5.293,9.651,16.298
1.351,-5.42,10.246,16.3
1.302,-5.827,10.394,16.301
3.176,-6.604,10.178,16.401
3.418,-7.242,10.389,16.403
3.302,-7.718,9.511,16.405
3.178,-7.422,7.989,16.406
2.867,-6.933,6.933,16.409
0.824,-6.04,7.027,16.497
-0.083,-5.345,7.148,16.498
-0.816,-5.283,7.747,16.508
-0.911,-5.45,8.332,16.517
-0.855,-5.925,8.666,16.518
-0.614,-3.502,10.214,16.6
-0.045,-3.264,10.545,16.602
0.194,-2.815,10.506,16.604
0.538,-2.337,9.662,16.605
0.969,-1.762,8.931,16.607
0.931,1.162,8.531,16.697
0.439,1.048,8.239,16.703
-0.01,0.641,7.99,16.705
-0.264,0.291,7.936,16.707
-0.42,-0.017,8.08,16.708
-0.128,-1.704,8.1,16.797
-0.112,-2.116,8.0,16.798
0.452,-2.264,7.8,16.801
1.028,-2.096,7.9,16.803
1.136,-1.752,8.4,16.804
1.052,-1.464,9.0,16.896
0.968,-1.176,9.6,16.908
1.104,-0.928,10.0,16.909
1.624,-0.568,10.6,16.911
2.5,0.0,10.9,16.913
3.456,1.008,11.2,16.996
3.864,1.752,11.9,17.001
3.312,2.216,12.9,17.003
1.804,1.672,13.8,17.006
4.212,0.959,13.641,17.008
3.288,-0.659,13.659,17.097
3.022,-1.725,12.425,17.099
2.654,-3.774,10.194,17.101
2.194,-3.901,8.108,17.102
1.66,-3.773,6.286,17.104
0.072,-3.004,5.328,17.197
0.161,-2.248,5.839,17.2
0.043,-2.308,8.257,17.202
0.274,-3.432,11.326,17.204
1.224,-6.639,12.576,17.206
1.0,-14.996,9.272,17.297
-0.4,-18.828,6.696,17.299
-1.1,-13.752,7.864,17.3
-0.7,-7.224,9.768,17.302
0.2,-3.764,10.048,17.303
1.201,1.386,8.401,17.398
1.462,0.137,6.562,17.399
1.535,-0.395,6.335,17.401
1.672,0.096,6.772,17.402
1.8,1.152,7.164,17.404
0.836,1.479,7.375,17.497
1.113,1.204,7.616,17.499
1.199,1.466,7.982,17.5
1.333,1.878,8.421,17.502
1.996,3.698,8.562,17.504
2.056,5.838,8.316,17.597
2.215,6.51,8.467,17.599
1.834,5.689,9.406,17.6
1.489,4.959,9.704,17.602
0.02,4.647,9.856,17.616
1.752,6.076,9.152,17.697
-0.158,6.419,8.742,17.699
2.102,6.235,8.602,17.7
1.802,5.035,9.902,17.702
1.801,5.318,9.801,17.704
2.645,5.165,9.567,17.797
2.094,4.718,9.241,17.799
1.567,3.998,8.451,17.8
1.465,4.204,7.698,17.808
1.269,4.392,7.404,17.809
0.678,6.513,7.809,17.896
1.237,6.412,5.551,17.898
2.939,4.928,5.534,17.904
3.034,5.439,6.328,17.906
3.073,6.024,6.803,17.996
3.056,6.226,7.418,17.998
3.331,6.065,7.804,18.0
2.553,6.752,9.294,18.005
1.918,7.056,9.226,18.017
3.002,7.235,6.496,18.097
2.78,6.653,5.541,18.098
2.551,6.667,5.198,18.104
2.437,7.024,4.327,18.106
2.259,7.106,3.282,18.108
2.579,7.391,2.536,18.196
3.385,6.708,3.068,18.198
3.914,7.006,3.176,18.199
4.131,6.67,3.319,18.201
4.243,7.204,3.984,18.203
3.671,7.902,4.392,18.301
3.62,8.723,4.509,18.303
3.45,9.107,5.672,18.305
4.061,8.641,5.538,18.306
5.103,7.958,6.766,18.308
4.972,7.888,5.748,18.397
4.839,8.259,5.562,18.398
3.448,9.935,6.361,18.404
3.542,9.718,6.129,18.419
3.967,8.457,5.67,18.422
3.078,8.056,5.656,18.497
2.449,8.578,5.698,18.498
1.211,9.122,4.922,18.5
0.247,9.133,4.393,18.501
1.178,7.756,2.856,18.503
0.534,7.832,2.761,18.597
-0.243,8.285,3.063,18.599
0.625,7.75,3.285,18.601
0.226,8.448,3.827,18.604
0.096,8.708,3.433,18.606
-0.35,9.399,2.971,18.697
0.384,9.531,3.932,18.699
0.582,10.037,4.607,18.7
0.342,10.117,5.195,18.702
0.061,9.478,5.83,18.704
0.193,8.819,2.781,18.797
0.941,7.748,2.352,18.798
0.563,8.593,0.707,18.811
0.889,8.878,0.122,18.812
1.615,8.363,3.437,18.814
0.874,9.199,-1.94,18.896
-0.676,9.539,-1.524,18.898
0.02,10.116,-0.054,18.9
-0.677,11.359,-0.157,18.903
-3.864,10.509,-5.536,18.904
2.67,11.146,0.824,18.996
1.012,10.267,-3.355,18.998
0.826,11.598,-3.472,19.0
1.711,11.403,-4.192,19.006
1.589,12.097,-4.308,19.007
0.689,11.516,-5.169,19.102
1.711,10.564,-5.271,19.103
0.791,9.814,-6.397,19.105
1.168,9.576,-6.078,19.107
1.325,9.348,-5.964,19.109
1.121,9.921,-3.926,19.196
2.153,9.353,-3.316,19.208
-0.68,8.752,-4.564,19.21
-1.56,8.984,-6.488,19.249
-0.86,7.804,-6.228,19.251
-3.027,6.687,-5.567,19.396
-3.984,7.391,-5.211,19.401
-2.891,6.738,-5.078,19.403
-2.436,5.549,-4.589,19.405
-2.211,4.478,-5.378,19.406
-0.507,4.547,-4.467,19.454
-0.822,4.756,-5.056,19.455
-0.82,4.74,-5.3,19.457
-0.82,5.74,-5.2,19.459
-0.456,6.689,-4.889,19.46
-1.867,7.219,-6.625,19.527
-1.495,8.06,-6.561,19.529
-1.576,6.771,-8.516,19.53
-1.561,7.722,-7.21,19.532
-0.079,6.455,-8.379,19.597
0.857,5.89,-7.641,19.608
0.943,7.11,-5.759,19.616
1.923,6.799,-5.804,19.618
1.998,7.056,-6.176,19.62
0.184,7.367,-6.596,19.696
0.665,6.8,-7.041,19.698
0.539,7.033,-6.71,19.7
0.231,6.967,-6.508,19.701
0.033,6.733,-7.233,19.703
0.351,7.133,-7.063,19.797
0.171,7.2,-7.118,19.799
-0.541,7.2,-6.965,19.802
-0.847,7.5,-6.688,19.804
-0.571,7.3,-6.382,19.806
-0.084,7.233,-6.604,19.896
0.31,7.133,-6.927,19.898
0.482,7.1,-7.171,19.899
0.39,7.067,-7.273,19.901
-0.049,7.333,-6.963,19.903
-0.131,6.268,-7.928,19.996
-1.424,6.747,-7.267,19.998
-1.219,6.363,-7.283,20.0
-1.288,6.495,-6.955,20.001
-1.601,6.537,-6.977,20.003
-1.104,6.647,-7.007,20.096
-1.36,6.9,-6.98,20.098
-1.487,6.958,-6.878,20.105
-1.185,6.484,-6.624,20.107
-0.879,6.363,-6.663,20.108
-0.604,7.267,-5.949,20.196
-0.388,7.0,-6.253,20.198
0.098,6.933,-6.475,20.204
-0.571,7.3,-6.382,20.206
-0.484,7.433,-6.504,20.207
-0.396,7.333,-6.551,20.296
-0.214,7.333,-6.422,20.298
0.057,7.233,-6.339,20.301
0.467,7.367,-6.067,20.303
0.065,7.2,-6.041,20.317
