gyro_time_list,gyro_x_list,gyro_y_list,gyro_z_list
0.0,0.4,0.2,-0.1
0.001,0.4,-0.2,-0.5
0.003,-0.3,-0.0,-0.6
0.005,0.1,0.0,0.5
0.103,0.0,0.2,0.7
0.105,-0.4,0.2,-0.2
0.11,-0.1,-0.3,-0.1
0.112,0.0,-0.3,-0.0
0.113,-0.1,0.0,-0.1
0.115,-0.1,0.1,0.0
0.203,-0.0,0.0,-0.1
0.205,0.0,-0.0,-0.1
0.206,0.0,-0.0,-0.1
0.208,-0.0,0.0,-0.1
0.21,-0.1,0.0,-0.1
0.316,-0.2,0.0,-0.1
0.338,-0.2,0.0,-0.1
0.34,-0.3,0.1,-0.0
0.342,-0.5,0.2,0.1
0.353,-0.8,0.3,0.2
0.407,-1.1,0.4,0.3
0.409,-1.0,0.4,0.3
0.41,-0.9,0.4,0.2
0.412,-1.2,0.3,0.2
0.413,-1.8,0.3,0.2
0.5,-2.1,0.3,0.1
0.506,-2.1,0.3,0.2
0.508,-2.1,0.5,0.5
0.51,-2.1,0.8,0.6
0.511,-2.0,1.0,0.6
0.6,-1.6,1.2,0.5
0.605,-1.1,1.7,0.6
0.608,-1.3,2.2,0.6
0.609,-1.5,2.3,0.6
0.709,-1.9,2.2,0.5
0.711,-2.4,2.4,0.6
0.72,-2.8,2.9,1.3
0.721,-2.3,3.3,1.9
0.731,-0.9,3.5,2.0
0.801,0.1,3.1,2.2
0.802,0.0,2.6,2.4
0.807,-0.8,2.6,1.9
0.809,-2.0,2.8,1.6
0.811,-3.0,3.0,1.5
0.907,-3.5,3.1,1.4
0.909,-3.6,3.2,1.2
0.911,-3.3,3.1,1.1
0.912,-2.7,3.0,0.8
0.914,-2.8,2.7,-0.4
1.006,-2.6,4.0,-0.6
1.008,-2.5,2.9,1.5
1.009,-2.4,2.4,0.9
1.011,-1.9,3.4,1.7
1.013,-1.3,2.6,1.9
1.116,-1.5,2.4,1.8
1.118,-1.7,2.4,1.6
1.119,-1.7,1.9,1.2
1.136,-1.6,1.1,0.6
1.137,-0.8,0.8,0.0
1.204,0.5,1.4,-0.2
1.209,1.4,1.5,-0.1
1.21,1.4,0.8,0.0
1.212,1.1,0.1,0.2
1.213,0.8,-0.2,0.3
1.3,0.4,-0.6,0.3
1.302,-0.2,-0.9,0.1
1.303,-0.7,-1.1,-0.1
1.327,-0.9,-1.2,-0.2
1.329,-1.0,-1.2,-0.4
1.399,-1.1,-1.2,-0.5
1.401,-1.0,-1.2,-0.6
1.403,-1.1,-1.1,-0.7
1.404,-0.9,-0.9,-0.8
1.406,-0.8,-0.8,-0.8
1.513,-0.7,-0.6,-0.8
1.515,-0.6,-0.4,-0.7
1.525,-0.4,-0.1,-0.5
1.528,0.2,0.4,-0.4
1.53,0.9,0.9,-0.5
1.601,1.8,1.2,-0.5
1.603,2.6,1.2,-0.9
1.604,3.1,1.0,-1.2
1.613,3.5,0.7,-1.5
1.615,4.2,0.5,-1.9
1.704,4.1,0.3,-2.1
1.705,3.8,-0.0,-2.1
1.712,3.3,-0.3,-2.0
1.714,3.1,-0.3,-1.9
1.715,2.8,-0.1,-1.8
1.8,2.1,-0.1,-1.8
1.806,1.3,-0.2,-1.6
1.808,0.6,-0.2,-1.4
1.809,0.4,-0.1,-1.2
1.811,0.5,0.0,-1.1
1.908,0.6,0.1,-0.9
1.924,0.7,0.1,-0.6
1.926,0.7,0.2,-0.4
1.928,0.7,0.3,-0.2
1.929,0.6,0.4,-0.0
2.006,0.4,0.4,0.1
2.008,0.1,0.4,0.3
2.009,-0.2,0.4,0.5
2.011,-0.5,0.5,0.7
2.013,-0.8,0.5,0.9
2.105,-1.0,0.6,1.1
2.106,-1.1,0.8,1.3
2.108,-1.0,1.0,1.4
2.11,-0.8,1.3,1.6
2.111,-0.7,1.6,1.7
2.214,-0.8,1.8,1.9
2.216,-1.0,2.1,2.0
2.223,-1.2,2.1,1.9
2.225,-1.4,1.6,1.6
2.318,-1.6,0.6,1.2
2.327,-1.7,-0.0,0.8
2.333,-1.5,-0.2,0.4
2.335,-1.5,-0.2,0.2
2.337,-1.5,-0.6,-0.1
2.338,-1.7,-1.1,-0.3
2.403,-2.0,-1.3,-0.4
2.404,-2.4,-1.3,-0.6
2.406,-2.5,-1.2,-0.7
2.409,-2.4,-1.0,-0.8
2.5,-2.1,-0.8,-0.8
2.502,-1.8,-0.4,-0.8
2.503,-1.6,-0.1,-0.7
2.505,-1.3,0.1,-0.6
2.511,-1.1,0.3,-0.5
2.608,-0.8,0.3,-0.3
2.609,-0.6,0.4,-0.1
2.611,-0.5,0.5,0.2
2.613,-0.4,0.6,0.4
2.622,-0.3,0.8,0.6
2.7,-0.1,1.0,0.8
2.702,0.2,1.1,0.9
2.703,0.5,1.3,1.1
2.705,0.9,1.3,1.3
2.706,1.2,1.2,1.3
2.805,1.2,1.1,1.4
2.806,0.9,0.6,1.1
2.808,0.6,-0.0,0.7
2.809,0.5,-0.6,0.3
2.813,0.6,-0.9,0.0
2.906,0.7,-0.9,-0.3
2.908,0.8,-0.9,-0.6
2.909,0.8,-0.9,-0.8
2.911,0.6,-1.0,-0.9
2.912,0.3,-1.2,-1.0
3.015,0.2,-1.1,-1.0
3.016,0.2,-1.0,-0.8
3.018,0.2,-1.0,-0.7
3.019,0.4,-0.9,-0.6
3.036,0.6,-0.7,-0.4
3.103,0.8,-0.4,-0.3
3.105,1.0,-0.1,-0.3
3.106,1.2,0.0,-0.3
3.108,1.3,0.1,-0.3
3.11,1.4,0.1,-0.3
3.204,1.4,0.1,-0.2
3.206,1.3,0.1,-0.2
3.209,1.0,0.1,-0.2
3.21,0.7,0.2,-0.3
3.212,0.5,0.2,-0.2
3.31,0.1,0.2,-0.2
3.312,-0.3,0.2,-0.1
3.318,-0.6,0.1,-0.0
3.32,-0.8,0.1,0.0
3.321,-1.0,0.1,0.1
3.409,-1.0,0.3,0.3
3.411,-1.0,0.4,0.4
3.412,-0.9,0.6,0.5
3.422,-0.8,0.7,0.6
3.423,-0.5,0.8,0.7
3.503,-0.3,0.8,0.6
3.504,-0.2,0.6,0.5
3.506,-0.2,0.6,0.3
3.508,-0.3,0.3,0.2
3.512,-0.5,-0.1,-0.0
3.605,-0.8,-0.6,-0.2
3.607,-1.1,-1.2,-0.4
3.609,-1.5,-1.5,-0.6
3.611,-1.7,-1.4,-0.6
3.612,-1.9,-1.1,-0.6
3.704,-1.9,-0.8,-0.6
3.706,-1.8,-0.5,-0.4
3.707,-1.7,-0.4,-0.3
3.709,-1.5,-0.2,-0.2
3.711,-1.4,-0.1,0.0
3.818,-1.3,-0.1,0.2
3.825,-1.2,-0.0,0.5
3.837,-1.1,0.1,0.7
3.839,-1.0,0.2,0.9
3.84,-0.9,0.5,1.1
3.899,-0.7,0.8,1.2
3.901,-0.5,1.0,1.4
3.902,-0.2,1.2,1.5
3.904,0.2,1.3,1.5
4.004,0.6,1.4,1.6
4.009,0.9,1.4,1.5
4.01,1.0,1.2,1.3
4.012,0.9,1.0,1.0
4.013,0.5,0.7,0.5
4.107,0.0,-0.2,-0.1
4.109,-0.3,-1.2,-0.5
4.11,-0.4,-1.7,-0.9
4.112,-0.2,-1.6,-1.1
4.114,0.1,-1.1,-1.2
4.216,0.4,-1.0,-1.3
4.217,0.5,-1.6,-1.4
4.227,0.6,-2.2,-1.3
4.229,0.6,-2.3,-1.2
4.235,0.7,-2.1,-1.1
4.306,0.9,-1.7,-0.9
4.307,1.0,-1.3,-0.9
4.309,1.1,-0.8,-1.0
4.311,1.1,-0.3,-1.0
4.312,1.1,0.1,-1.0
4.404,0.9,0.3,-1.0
4.406,0.7,0.3,-0.8
4.407,0.5,0.4,-0.7
4.409,0.3,0.4,-0.4
4.41,0.2,0.4,-0.2
4.51,0.1,0.5,-0.0
4.517,-0.0,0.5,0.2
4.518,-0.2,0.6,0.4
4.52,-0.4,0.6,0.7
4.521,-0.7,0.6,0.9
4.602,-0.8,0.7,1.0
4.613,-0.8,1.0,1.1
4.614,-0.8,1.3,1.2
4.616,-0.8,1.7,1.3
4.618,-0.9,2.0,1.2
4.702,-1.0,2.0,1.3
4.703,-1.0,1.8,1.3
4.711,-1.0,1.3,1.2
4.713,-1.0,0.7,1.1
4.715,-1.1,0.0,0.9
4.808,-1.1,-0.4,0.7
4.809,-0.8,-0.4,0.5
4.811,-0.4,-0.1,0.4
4.813,-0.2,-0.3,0.0
4.814,-0.4,-0.9,-0.4
4.907,-0.7,-1.5,-0.8
4.911,-1.0,-1.7,-1.1
4.92,-1.3,-1.5,-1.4
4.922,-1.4,-1.0,-1.4
4.923,-1.4,-0.6,-1.4
5.005,-1.2,-0.2,-1.3
5.007,-0.9,0.1,-1.1
5.009,-0.5,0.4,-0.8
5.011,-0.0,0.5,-0.5
5.012,0.3,0.5,-0.2
5.101,0.5,0.4,0.1
5.102,0.6,0.3,0.3
5.104,0.6,0.2,0.5
5.105,0.6,0.2,0.6
5.107,0.6,0.5,0.7
5.203,0.4,0.7,0.7
5.204,0.3,0.7,0.8
5.206,0.2,0.6,0.8
5.211,0.2,0.6,0.8
5.215,0.1,0.6,0.8
5.309,0.1,0.6,0.7
5.31,0.1,0.5,0.6
5.312,-0.0,0.4,0.4
5.313,-0.1,0.2,0.1
5.323,-0.1,-0.1,-0.2
5.403,0.1,-0.4,-0.3
5.405,0.4,-0.5,-0.4
5.413,0.7,-0.6,-0.5
5.415,1.1,-0.7,-0.5
5.417,1.5,-0.8,-0.6
5.499,1.6,-0.9,-0.6
5.5,1.5,-1.1,-0.5
5.502,1.3,-1.2,-0.5
5.503,0.9,-1.4,-0.5
5.606,0.7,-1.4,-0.5
5.608,0.6,-1.1,-0.5
5.61,0.5,-0.8,-0.4
5.611,0.5,-0.5,-0.5
5.613,0.5,-0.2,-0.6
5.71,0.6,0.1,-0.6
5.716,0.7,0.2,-0.6
5.718,0.7,0.2,-0.6
5.72,0.6,0.2,-0.5
5.729,0.5,0.2,-0.3
5.802,0.3,0.2,-0.2
5.807,0.2,0.2,0.0
5.81,0.0,0.3,0.2
5.814,-0.1,0.5,0.4
5.817,-0.3,0.6,0.5
5.904,-0.5,0.6,0.7
5.906,-0.6,0.6,0.8
5.908,-0.6,0.6,0.8
5.912,-0.5,0.8,0.8
5.914,-0.4,0.9,0.7
6.002,-0.3,1.0,0.6
6.003,-0.3,1.0,0.4
6.005,-0.3,0.9,0.3
6.008,-0.4,0.5,0.2
6.014,-0.5,0.2,0.2
6.108,-0.6,-0.0,0.1
6.109,-0.6,-0.1,-0.1
6.111,-0.5,-0.1,-0.2
6.12,-0.3,-0.4,-0.3
6.13,-0.3,-0.8,-0.5
6.206,-0.5,-1.4,-0.7
6.207,-0.7,-1.8,-0.9
6.209,-0.8,-1.7,-1.0
6.211,-1.0,-1.2,-1.0
6.212,-1.1,-0.6,-0.9
6.304,-1.1,-0.1,-0.6
6.305,-1.0,0.2,-0.3
6.307,-0.8,0.4,-0.1
6.309,-0.6,0.4,0.2
6.31,-0.4,0.3,0.5
6.402,-0.2,0.2,0.7
6.403,-0.0,0.1,0.9
6.405,0.1,0.2,1.0
6.407,0.2,0.3,1.1
6.408,0.3,0.6,1.1
6.515,0.3,0.7,1.1
6.516,0.3,0.8,1.1
6.526,0.3,0.8,1.0
6.528,0.2,0.7,0.8
6.529,0.0,0.6,0.6
6.602,-0.1,0.5,0.4
6.604,-0.2,0.4,0.1
6.606,-0.4,0.3,-0.1
6.607,-0.6,0.1,-0.3
6.609,-0.9,-0.2,-0.6
6.704,-0.9,-0.3,-0.8
6.705,-0.6,-0.4,-0.8
6.707,-0.1,-0.3,-0.6
6.708,0.7,-0.2,-0.5
6.71,1.3,-0.2,-0.4
6.799,1.7,-0.3,-0.3
6.805,1.9,-0.6,-0.3
6.807,1.8,-1.0,-0.2
6.809,1.7,-1.4,-0.2
6.811,1.4,-1.6,-0.1
6.916,1.1,-1.7,-0.2
6.927,0.9,-1.7,-0.2
6.928,0.8,-1.3,-0.3
6.93,0.7,-0.7,-0.4
6.932,0.5,-0.3,-0.6
7.003,0.4,0.1,-0.7
7.004,0.2,0.4,-0.8
7.008,0.2,0.6,-0.9
7.01,0.4,0.7,-0.9
7.011,0.6,0.6,-0.8
7.099,0.7,0.2,-0.7
7.101,0.6,-0.2,-0.6
7.109,0.4,-0.5,-0.4
7.11,0.1,-0.6,-0.2
7.113,-0.1,-0.6,-0.0
7.215,-0.4,-0.4,0.2
7.218,-0.6,-0.2,0.3
7.22,-0.9,0.2,0.5
7.221,-1.0,0.6,0.6
7.304,-1.1,1.0,0.7
7.314,-0.9,1.5,0.9
7.315,-0.6,1.8,1.0
7.317,-0.2,1.9,1.2
7.319,-0.4,1.4,1.4
7.399,-0.6,0.9,1.4
7.4,-0.8,0.3,1.1
7.406,-1.4,-0.2,0.7
7.408,-1.8,-0.4,0.4
7.41,-1.8,-0.3,0.1
7.499,-1.8,-0.3,-0.3
7.5,-1.7,-0.4,-0.5
7.502,-1.4,-0.5,-0.6
7.504,-1.1,-0.5,-0.7
7.505,-0.8,-0.3,-0.7
7.609,-0.5,-0.1,-0.5
7.61,-0.1,0.2,-0.4
7.612,0.2,0.4,-0.2
7.614,0.5,0.5,0.1
7.615,0.6,0.6,0.2
7.702,0.6,0.5,0.3
7.704,0.6,0.4,0.4
7.705,0.6,0.3,0.5
7.71,0.7,0.2,0.6
7.712,0.8,0.2,0.7
7.802,1.0,0.4,0.8
7.804,1.3,0.7,0.8
7.809,1.7,1.0,0.8
7.811,2.0,1.0,0.7
7.812,2.1,0.9,0.7
7.903,1.9,0.5,0.5
7.905,1.6,0.1,0.3
7.907,1.3,-0.3,-0.1
7.908,0.8,-0.5,-0.4
7.91,0.3,-0.5,-0.8
8.01,-0.1,-0.6,-1.0
8.017,-0.4,-0.6,-1.2
8.018,-0.6,-0.5,-1.3
8.02,-0.7,-0.5,-1.3
8.029,-0.2,-0.5,-1.1
8.099,0.6,-0.4,-0.8
8.101,1.6,-0.5,-0.6
8.102,2.3,-0.5,-0.4
8.104,2.7,-0.5,-0.2
8.105,2.6,-0.5,-0.2
8.201,2.2,-0.6,-0.3
8.203,1.7,-0.8,-0.4
8.205,1.2,-1.0,-0.4
8.206,0.8,-1.0,-0.3
8.213,0.4,-1.0,-0.3
8.298,0.2,-1.0,-0.2
8.3,0.1,-0.8,-0.2
8.301,0.0,-0.4,-0.1
8.303,0.1,0.1,-0.2
8.309,0.3,0.4,-0.2
8.408,0.5,0.7,-0.3
8.41,0.6,0.8,-0.3
8.412,0.8,1.0,-0.3
8.422,0.8,1.1,-0.3
8.431,0.6,1.1,-0.3
8.504,0.3,1.0,-0.1
8.507,-0.0,1.0,0.0
8.508,-0.4,1.0,0.2
8.51,-0.7,1.0,0.5
8.513,-1.0,0.9,0.7
8.603,-1.0,0.7,0.9
8.604,-0.9,0.7,1.0
8.606,-0.6,0.9,1.0
8.608,-0.4,1.1,1.0
8.609,-0.4,1.3,0.9
8.704,-0.6,1.3,0.8
8.705,-0.8,1.2,0.8
8.707,-0.9,0.6,0.8
8.709,-0.7,-0.2,0.8
8.71,-0.5,-0.9,0.6
8.812,-0.4,-1.4,0.4
8.814,-0.3,-1.4,0.2
8.823,-0.2,-1.1,-0.2
8.825,-0.1,-0.8,-0.5
8.903,-0.1,-0.8,-0.8
8.905,-0.2,-0.9,-1.1
8.906,-0.4,-1.1,-1.3
8.908,-0.5,-1.2,-1.5
8.91,-0.5,-0.9,-1.6
8.998,-0.3,-0.5,-1.4
9.0,-0.0,0.1,-1.3
9.002,0.3,0.6,-1.1
9.003,0.8,1.0,-0.8
9.005,1.3,1.3,-0.4
9.098,1.7,1.4,0.0
9.1,2.0,1.3,0.4
9.102,2.2,1.1,0.7
9.105,2.3,0.8,0.9
9.108,2.5,0.6,1.1
9.227,2.8,0.4,1.2
9.228,2.9,0.4,1.2
9.238,3.0,0.4,1.1
9.239,3.0,0.5,1.0
9.241,2.8,0.5,0.7
9.306,2.6,0.4,0.5
9.308,2.3,0.2,0.1
9.309,1.8,0.1,-0.2
9.311,1.3,0.1,-0.6
9.316,1.0,0.0,-0.8
9.405,0.6,-0.1,-1.1
9.407,0.4,-0.2,-1.2
9.409,0.2,-0.2,-1.3
9.41,0.3,-0.1,-1.2
9.412,0.5,-0.1,-1.1
9.507,0.9,-0.1,-0.9
9.508,1.5,-0.3,-0.8
9.516,2.1,-0.3,-0.6
9.518,2.6,-0.2,-0.4
9.519,3.0,-0.1,-0.3
9.6,3.1,0.1,-0.1
9.609,3.1,-0.1,0.1
9.611,2.8,-0.4,0.3
9.612,2.5,-0.7,0.4
9.614,2.0,-0.6,0.5
9.704,1.5,-0.5,0.4
9.707,1.1,-0.5,0.2
9.71,0.9,-0.3,-0.1
9.712,0.8,-0.1,-0.4
9.714,0.8,0.1,-0.8
9.798,0.8,0.3,-1.1
9.8,0.7,0.4,-1.2
9.808,0.8,0.3,-1.3
9.81,0.9,0.1,-1.3
9.812,1.0,-0.1,-1.2
9.922,1.0,-0.1,-1.0
9.924,0.9,-0.0,-0.8
9.925,0.6,0.1,-0.7
9.927,0.3,0.3,-0.5
9.929,0.1,0.4,-0.3
10.002,-0.1,0.5,-0.1
10.003,-0.1,0.6,-0.0
10.005,0.0,0.8,0.1
10.007,0.2,1.0,0.2
10.008,0.6,1.4,0.4
10.106,1.2,1.9,0.6
10.107,1.4,2.7,0.8
10.109,1.2,3.3,1.1
10.111,0.4,3.2,1.3
10.112,-0.3,2.4,1.4
10.199,-0.5,1.0,1.4
10.2,-0.4,-0.2,1.3
10.202,-0.2,-0.9,1.1
10.204,-0.2,-1.2,0.8
10.207,-0.1,-1.4,0.5
10.311,0.0,-1.4,0.2
10.312,0.1,-1.4,-0.1
10.314,-0.0,-1.7,-0.4
10.32,-0.4,-2.2,-0.9
10.33,-1.0,-2.3,-1.2
10.402,-1.5,-1.9,-1.4
10.403,-1.7,-1.3,-1.4
10.409,-1.5,-0.5,-1.2
10.41,-1.1,0.1,-0.9
10.412,-0.5,0.6,-0.6
10.497,0.2,1.0,-0.2
10.499,0.9,1.1,0.1
10.5,1.4,1.2,0.4
10.502,1.8,1.1,0.6
10.597,2.0,0.9,0.8
10.599,2.2,0.7,1.0
10.601,2.4,0.5,1.0
10.602,2.5,0.5,1.0
10.608,2.5,0.4,0.9
10.709,2.5,0.4,0.7
10.711,2.5,0.5,0.5
10.712,2.3,0.5,0.2
10.721,2.0,0.5,-0.1
10.731,1.6,0.5,-0.4
10.804,0.9,0.4,-0.7
10.806,0.3,0.4,-1.1
10.808,-0.3,0.4,-1.3
10.809,-0.9,0.3,-1.5
10.814,-1.2,0.3,-1.5
10.907,-1.4,0.1,-1.3
10.908,-1.2,-0.3,-1.0
10.91,-0.6,-0.8,-0.5
10.911,0.3,-1.1,-0.1
10.914,1.4,-0.9,0.4
11.008,2.4,-0.6,0.7
11.01,3.1,-0.3,0.9
11.012,3.4,0.0,0.9
11.013,3.4,0.5,0.8
11.015,3.3,0.7,0.6
11.11,3.0,0.7,0.5
11.112,2.6,0.5,0.3
11.114,2.2,0.3,0.1
11.123,1.8,0.2,-0.1
11.135,1.5,0.0,-0.3
11.204,1.3,-0.1,-0.6
11.205,1.1,-0.2,-0.8
11.207,1.0,-0.2,-1.0
11.209,0.8,-0.2,-1.2
11.21,0.6,-0.2,-1.3
11.299,0.4,-0.2,-1.4
11.301,0.1,-0.2,-1.3
11.303,-0.0,-0.2,-1.2
11.306,-0.1,-0.2,-1.0
11.31,-0.1,-0.0,-0.8
11.404,-0.0,0.1,-0.5
11.405,0.1,0.3,-0.1
11.407,0.3,0.6,0.2
11.409,0.4,0.7,0.5
11.41,0.4,0.8,0.8
11.51,0.5,0.8,1.0
11.512,0.6,0.7,1.1
11.522,0.6,0.6,1.1
11.523,0.6,0.7,1.0
11.525,0.6,0.7,0.9
11.6,0.4,0.7,0.8
11.603,-0.0,0.7,0.6
11.605,-0.5,0.6,0.5
11.607,-0.9,0.5,0.4
11.609,-1.0,0.3,0.3
11.697,-1.0,0.1,0.1
11.707,-0.9,0.1,0.0
11.709,-0.7,0.1,-0.1
11.711,-0.5,0.2,-0.2
11.712,-0.3,0.1,-0.3
11.797,-0.1,-0.1,-0.3
11.799,0.1,-0.3,-0.4
11.8,0.3,-0.7,-0.4
11.806,0.5,-0.9,-0.4
11.808,0.7,-0.8,-0.4
11.909,0.7,-0.6,-0.5
11.919,0.7,-0.3,-0.5
11.921,0.7,-0.1,-0.5
11.922,0.7,0.1,-0.4
11.924,0.7,0.1,-0.4
11.998,0.8,0.1,-0.3
11.999,0.9,-0.1,-0.2
12.001,1.1,-0.2,-0.1
12.003,1.2,-0.3,0.0
12.013,1.2,-0.4,0.0
12.097,1.3,-0.4,0.0
12.098,1.4,-0.3,0.0
12.104,1.4,-0.1,-0.0
12.106,1.2,0.1,-0.1
12.208,1.0,0.3,-0.2
12.21,0.8,0.5,-0.2
12.211,0.5,0.7,-0.2
12.213,0.3,0.8,-0.1
12.214,0.1,0.8,0.0
12.305,0.1,0.9,0.1
12.328,0.1,0.9,0.2
12.333,0.1,0.9,0.3
12.342,0.0,1.0,0.4
12.345,0.1,1.0,0.5
12.401,0.1,0.9,0.5
12.403,0.1,0.6,0.5
12.404,0.2,0.2,0.4
12.406,0.4,-0.3,0.3
12.411,0.7,-0.7,0.2
12.502,1.0,-0.8,0.1
12.504,1.4,-0.6,0.0
12.507,1.7,-0.4,-0.1
12.509,1.8,-0.4,-0.1
12.511,1.6,-0.8,-0.2
12.616,1.3,-1.1,-0.3
12.619,0.9,-1.2,-0.3
12.622,0.7,-1.2,-0.4
12.63,0.7,-1.0,-0.4
12.632,0.5,-0.8,-0.6
12.697,0.4,-0.5,-0.8
12.702,0.4,-0.3,-1.1
12.704,0.3,-0.0,-1.3
12.708,0.4,0.1,-1.4
12.711,0.3,0.0,-1.4
12.8,0.2,-0.1,-1.4
12.802,0.0,-0.2,-1.3
12.804,-0.1,-0.3,-1.1
12.805,-0.4,-0.5,-0.9
12.807,-0.6,-0.5,-0.7
12.906,-0.7,-0.3,-0.3
12.908,-0.8,-0.2,0.1
12.909,-0.9,-0.1,0.4
12.911,-1.0,0.0,0.8
12.913,-1.0,0.2,1.2
13.011,-1.2,0.6,1.5
13.014,-1.4,0.8,1.8
13.018,-1.6,1.0,2.0
13.02,-1.7,1.0,2.1
13.03,-1.6,0.9,2.3
13.101,-1.2,0.5,2.1
13.102,-0.8,0.2,1.9
13.106,-0.7,-0.1,1.6
13.107,-0.8,-0.2,1.1
13.112,-1.1,-0.0,0.7
13.204,-1.5,0.1,0.2
13.206,-1.9,-0.1,-0.4
13.208,-2.3,-0.5,-0.8
13.209,-2.7,-0.7,-1.1
13.211,-3.0,-0.9,-1.3
13.321,-3.1,-1.0,-1.3
13.323,-3.0,-0.8,-1.1
13.325,-2.7,-0.7,-0.8
13.327,-2.2,-0.5,-0.4
13.328,-1.6,-0.2,-0.0
13.413,-1.0,0.0,0.4
13.415,-0.5,0.3,0.8
13.416,0.1,0.5,1.1
13.426,0.6,0.7,1.5
13.434,0.9,0.9,1.7
13.504,1.3,1.2,1.8
13.505,1.5,1.4,1.8
13.507,1.7,1.4,1.7
13.512,1.8,1.2,1.5
13.514,1.6,0.8,1.1
13.597,1.1,0.4,0.6
13.598,0.5,0.2,-0.0
13.6,-0.2,0.1,-0.6
13.602,-0.8,-0.2,-1.1
13.603,-1.1,-0.3,-1.4
13.697,-1.0,-0.4,-1.6
13.701,-0.7,-0.5,-1.5
13.703,-0.0,-0.5,-1.3
13.705,0.9,-0.4,-1.1
13.811,1.9,-0.3,-0.9
13.812,2.6,-0.3,-0.7
13.814,3.0,-0.4,-0.4
13.829,3.0,-0.8,-0.3
13.83,2.8,-1.2,-0.2
13.897,2.5,-1.5,-0.2
13.899,2.1,-1.8,-0.2
13.9,1.7,-1.8,-0.3
13.902,1.2,-1.7,-0.5
13.912,0.7,-1.4,-0.7
14.002,0.3,-1.0,-1.0
14.005,0.0,-0.5,-1.2
14.01,-0.2,-0.2,-1.4
14.011,-0.3,-0.1,-1.5
14.013,-0.2,-0.3,-1.5
14.101,-0.0,-0.4,-1.3
14.102,0.1,-0.4,-1.0
14.108,0.1,-0.5,-0.8
14.11,0.1,-0.5,-0.6
14.111,0.0,-0.4,-0.4
14.23,-0.1,-0.2,-0.1
14.238,-0.4,0.1,0.1
14.249,-0.7,0.4,0.4
14.251,-0.9,0.7,0.7
14.253,-0.9,1.1,1.0
14.322,-0.9,1.4,1.3
14.324,-0.8,1.7,1.6
14.326,-0.7,2.0,2.0
14.327,-0.6,2.2,2.4
14.329,-0.5,2.4,2.7
14.33,-0.4,2.4,2.9
14.394,-0.4,2.0,3.0
14.396,-1.0,0.9,2.4
14.397,-1.6,-0.1,1.7
14.399,-1.4,-0.5,1.2
14.5,-1.1,-0.5,0.6
14.501,-1.1,-0.6,0.1
14.503,-1.4,-1.0,-0.6
14.505,-2.0,-1.5,-1.4
14.51,-2.5,-1.7,-2.0
14.615,-2.9,-1.6,-2.3
14.624,-3.2,-1.3,-2.3
14.626,-3.0,-1.0,-2.1
14.635,-2.6,-0.8,-1.8
14.636,-1.8,-0.6,-1.3
14.704,-0.9,-0.4,-0.8
14.705,-0.2,-0.2,-0.4
14.707,0.2,0.0,0.0
14.708,0.4,0.1,0.3
14.717,0.5,0.2,0.6
14.798,0.5,0.3,0.9
14.8,0.4,0.6,1.0
14.801,0.2,0.8,1.1
14.803,0.0,1.0,1.2
14.805,-0.1,1.1,1.2
14.906,-0.1,1.2,1.2
14.915,-0.1,1.1,1.1
14.917,-0.2,1.0,1.1
14.919,-0.2,0.7,0.9
14.92,-0.2,0.5,0.7
15.001,-0.2,0.4,0.5
15.003,-0.3,0.4,0.3
15.004,-0.5,0.2,-0.0
15.006,-0.6,-0.1,-0.3
15.008,-0.5,-0.4,-0.5
15.103,-0.2,-0.6,-0.6
15.105,0.3,-0.6,-0.5
15.107,0.8,-0.6,-0.5
15.108,1.4,-0.4,-0.4
15.11,2.1,-0.3,-0.3
15.201,2.5,-0.5,-0.2
15.203,2.8,-0.9,-0.1
15.206,2.9,-1.1,-0.0
15.207,2.8,-1.1,-0.1
15.209,2.5,-1.0,-0.2
15.314,1.9,-0.9,-0.6
15.316,1.2,-0.8,-1.0
15.317,0.5,-0.7,-1.4
15.319,-0.0,-0.8,-1.8
15.328,-0.4,-0.8,-2.0
15.403,-0.7,-0.8,-2.2
15.405,-0.8,-0.9,-2.1
15.406,-0.7,-0.9,-2.0
15.408,-0.5,-0.8,-1.8
15.497,-0.3,-0.7,-1.4
15.498,-0.1,-0.5,-1.0
15.5,0.0,-0.2,-0.6
15.501,-0.1,0.2,-0.1
15.503,-0.2,0.5,0.3
15.6,-0.4,0.6,0.8
15.602,-0.6,0.7,1.2
15.604,-0.7,0.8,1.5
15.605,-0.7,1.0,1.8
15.607,-0.6,1.3,2.0
15.713,-0.6,1.5,2.2
15.715,-0.6,1.8,2.3
15.717,-0.7,1.9,2.4
15.724,-0.8,1.9,2.4
15.734,-0.8,1.4,2.2
15.8,-1.0,0.8,1.8
15.802,-0.9,0.3,1.4
15.803,-0.6,0.3,1.0
15.808,-0.5,0.4,0.5
15.809,-0.5,0.1,-0.0
15.897,-0.6,-0.4,-0.6
15.902,-1.0,-0.8,-1.1
15.903,-1.4,-1.1,-1.5
15.905,-1.8,-1.1,-1.7
15.907,-2.0,-0.9,-1.7
15.999,-1.9,-0.6,-1.5
16.001,-1.5,-0.2,-1.2
16.002,-0.9,0.1,-0.7
16.004,-0.2,0.3,-0.3
16.005,0.5,0.4,0.1
16.113,1.0,0.4,0.4
16.12,1.4,0.3,0.6
16.121,1.6,0.2,0.8
16.134,1.7,0.0,0.9
16.136,1.7,-0.1,0.9
16.198,1.7,-0.1,0.8
16.199,1.5,0.0,0.7
16.201,1.3,0.2,0.4
16.202,1.0,0.3,0.2
16.21,0.8,0.3,-0.1
16.294,0.6,0.3,-0.3
16.296,0.4,0.3,-0.5
16.297,0.1,0.3,-0.7
16.299,-0.2,0.3,-0.9
16.305,-0.4,0.2,-1.0
16.404,-0.4,0.2,-1.0
16.406,-0.2,0.2,-0.9
16.408,0.3,0.0,-0.7
16.41,1.1,-0.0,-0.4
16.412,1.9,-0.0,-0.1
16.511,2.4,-0.1,0.1
16.513,2.6,-0.2,0.3
16.527,2.6,-0.4,0.3
16.529,2.5,-0.6,0.3
16.532,2.4,-0.8,0.3
16.6,2.4,-0.9,0.3
16.601,2.5,-0.8,0.3
16.603,2.3,-0.6,0.2
16.605,1.9,-0.5,-0.1
16.611,1.2,-0.3,-0.4
16.701,0.6,-0.1,-0.7
16.703,0.0,-0.0,-1.0
16.706,-0.3,0.0,-1.2
16.708,-0.5,0.0,-1.3
16.71,-0.5,-0.0,-1.3
16.797,-0.5,-0.1,-1.2
16.799,-0.3,-0.1,-1.0
16.804,-0.0,-0.0,-0.8
16.806,0.3,0.2,-0.5
16.808,0.4,0.4,-0.2
16.905,0.5,0.6,0.0
16.92,0.4,0.7,0.2
16.929,0.3,0.8,0.4
16.93,0.2,0.9,0.5
16.932,0.3,1.2,0.5
17.001,0.4,1.6,0.6
17.002,0.2,2.0,0.6
17.007,-0.5,2.1,0.6
17.009,-1.4,1.7,0.6
17.097,-2.0,1.0,0.7
17.098,-2.2,0.0,0.9
17.1,-1.9,-0.8,1.0
17.102,-1.6,-1.6,1.1
17.103,-1.2,-2.1,0.9
17.207,-1.1,-2.4,0.8
17.208,-1.1,-2.1,0.5
17.216,-1.1,-1.6,0.2
17.217,-1.4,-1.4,-0.1
17.219,-1.5,-1.6,-0.4
17.296,-1.1,-1.7,-0.6
17.309,0.9,-0.9,-0.5
17.311,3.8,0.0,-0.0
17.312,5.8,0.7,0.4
17.314,5.9,0.6,0.5
17.397,4.8,-0.2,-0.1
17.399,3.2,-0.8,-0.9
17.4,2.3,-0.8,-1.4
17.407,1.8,-0.7,-1.9
17.408,1.6,-0.7,-2.2
17.497,1.4,-0.7,-2.5
17.504,1.4,-0.6,-2.7
17.505,1.6,-0.4,-2.8
17.507,1.7,-0.3,-2.8
17.508,1.8,-0.1,-2.7
17.609,1.7,0.2,-2.7
17.611,1.5,0.7,-2.5
17.613,1.0,1.4,-2.2
17.614,1.0,1.7,-2.1
17.616,0.8,1.9,-1.7
17.696,0.9,1.8,-1.5
17.698,1.1,1.8,-1.3
17.7,1.9,1.7,-1.2
17.701,0.9,1.2,-0.8
17.703,1.2,1.3,-0.6
17.802,1.3,0.8,-0.2
17.804,1.5,0.6,0.2
17.806,1.8,0.4,0.4
17.807,2.1,-0.0,0.6
17.809,2.0,-0.2,0.5
17.9,1.9,-0.5,0.3
17.902,1.5,-1.0,0.2
17.906,0.8,-1.2,-0.0
17.908,0.5,-0.8,-0.2
17.91,0.6,-0.3,-0.4
18.019,0.5,0.2,-0.7
18.021,0.5,0.5,-0.4
18.023,0.4,0.9,-0.3
18.024,0.5,0.7,-0.2
18.035,0.5,0.3,-0.2
18.1,0.4,0.1,-0.3
18.102,0.4,0.2,-0.4
18.104,0.6,0.3,-0.4
18.11,0.6,0.3,-0.5
18.111,0.3,0.4,-0.5
18.199,-0.1,0.3,-0.6
18.201,-0.1,0.4,-0.6
18.204,-0.0,0.6,-0.5
18.205,0.0,0.8,-0.3
18.207,0.2,0.8,-0.2
18.301,0.4,0.7,-0.0
18.302,0.2,0.5,-0.1
18.304,0.2,0.1,-0.1
18.306,0.0,-0.1,0.2
18.307,0.1,-0.2,0.6
18.415,0.1,-0.2,0.9
18.418,0.3,0.4,1.1
18.425,0.7,0.2,0.6
18.436,0.7,-0.3,0.6
18.438,0.8,-0.4,0.6
18.496,1.1,-0.0,0.4
18.498,1.3,0.1,0.3
18.501,1.3,-0.2,0.2
18.503,0.9,-0.7,-0.3
18.512,0.4,-0.7,-0.3
18.6,-0.3,-0.6,-0.1
18.601,-0.3,-0.7,-0.2
18.603,-0.3,-0.4,-0.1
18.604,-0.3,-0.2,0.1
18.606,-0.4,0.2,0.0
18.697,-0.6,0.8,-0.4
18.702,-0.4,1.3,-0.2
18.704,0.2,1.8,-0.0
18.706,0.9,1.9,0.2
18.807,1.5,1.6,0.5
18.816,1.6,1.1,0.7
18.818,1.6,0.9,1.0
18.829,1.5,0.7,0.5
18.831,1.2,0.5,-0.1
18.897,1.9,0.5,0.5
18.902,1.2,0.4,-0.6
18.904,1.1,0.1,-0.5
18.905,1.3,-0.2,-0.4
18.907,1.2,-1.0,0.5
19.0,2.2,-1.2,0.2
19.002,1.8,-0.9,0.4
19.004,1.8,-0.8,0.7
19.005,1.8,-0.9,0.9
19.007,1.5,-0.8,0.7
19.103,1.3,-1.0,0.3
19.104,1.2,-1.3,0.3
19.106,1.3,-1.4,0.4
19.108,1.2,-1.4,0.4
19.109,1.2,-1.3,0.3
19.245,1.1,-1.3,0.3
19.248,1.2,-1.2,0.3
19.3,1.3,-0.5,0.4
19.302,1.9,-0.3,0.3
19.304,1.7,-0.5,-0.1
19.399,0.7,-1.3,-0.3
19.401,0.7,-1.1,-0.4
19.406,0.4,-1.0,-0.7
19.407,-0.0,-1.1,-0.9
19.409,-0.2,-0.9,-0.5
19.453,0.7,-1.3,-0.3
19.455,0.7,-1.1,-0.4
19.457,0.4,-1.0,-0.7
19.462,-0.0,-1.1,-0.9
19.464,-0.2,-0.9,-0.5
19.525,-0.3,-0.7,-0.1
19.532,-0.3,-0.6,0.0
19.534,-0.3,-0.6,-0.1
19.535,-0.8,-0.6,-0.0
19.537,-0.4,-0.9,-0.4
19.615,-0.1,-0.7,-1.3
19.627,-0.6,-1.1,-1.5
19.631,-0.2,-1.0,-1.3
19.633,0.2,-0.8,-1.0
19.634,0.4,-0.6,-0.9
19.696,0.5,-0.6,-0.6
19.697,0.4,-0.5,-0.3
19.699,0.4,-0.2,-0.2
19.7,0.3,-0.3,0.1
19.702,0.1,-0.4,0.2
19.802,-0.1,-0.3,0.1
19.804,-0.3,-0.2,0.2
19.805,-0.3,-0.2,0.0
19.807,-0.4,-0.3,-0.1
19.808,-0.2,-0.4,-0.3
19.906,-0.0,-0.4,-0.4
19.916,-0.1,-0.2,-0.4
19.917,-0.2,0.1,-0.4
19.919,-0.3,0.3,-0.4
19.921,-0.3,0.4,-0.3
20.0,-0.4,0.6,-0.2
20.003,-0.2,0.4,-0.2
20.005,-0.1,0.1,-0.1
20.007,0.1,-0.0,-0.1
20.009,0.2,-0.2,0.1
20.101,0.1,-0.3,0.3
20.103,0.1,-0.3,0.4
20.105,0.2,-0.4,0.6
20.106,0.1,-0.6,0.6
20.108,0.1,-0.6,0.6
20.2,-0.0,-0.5,0.5
20.202,-0.2,-0.4,0.4
20.204,-0.4,-0.0,0.2
20.206,-0.4,0.2,-0.1
20.209,-0.4,0.3,-0.2
20.314,-0.2,0.4,-0.3
20.316,-0.1,0.4,-0.3
20.325,-0.0,0.4,-0.3
20.327,0.1,0.4,-0.2
20.338,0.3,0.3,-0.3
