accel_time_list,accel_x_list,accel_y_list,accel_z_list
0.0,-2.3,-0.7,9.7
0.002,-2.4,-0.7,9.6
0.004,-2.2,-0.5,9.9
0.005,-2.2,-0.6,10.0
0.007,-2.9,-1.2,9.3
0.101,-3.0,-0.7,9.1
0.104,-1.9,-1.0,9.4
0.106,-2.1,-0.7,9.7
0.108,-2.5,-0.8,9.6
0.109,-2.4,-0.8,9.4
0.208,-2.5,-1.1,9.2
0.21,-2.3,-1.0,9.3
0.211,-2.5,-0.9,9.4
0.213,-2.6,-0.7,9.4
0.214,-2.4,-0.8,9.3
0.326,-2.5,-0.9,9.3
0.331,-2.5,-1.0,9.3
0.333,-2.7,-0.9,9.2
0.334,-2.5,-0.9,9.1
0.346,-2.4,-0.9,9.0
0.429,-2.7,-0.8,8.8
0.431,-2.4,-0.8,8.5
0.432,-1.9,-0.7,8.2
0.434,-2.6,0.1,7.2
0.435,-1.1,0.1,7.4
0.441,-1.2,-0.9,6.9
0.525,-3.0,-0.8,6.6
0.531,-2.9,-0.5,7.3
0.533,-3.4,-1.1,6.7
0.535,-3.8,-1.3,6.0
0.536,-3.7,-1.6,5.6
0.629,-4.1,-1.8,5.2
0.631,-4.9,-2.7,5.4
0.632,-6.1,-3.4,5.2
0.634,-6.8,-3.3,5.1
0.636,-7.1,-3.5,4.7
0.71,-7.8,-3.4,4.4
0.712,-8.5,-3.1,4.5
0.722,-9.4,-3.6,4.9
0.724,-10.9,-4.4,4.7
0.739,-11.4,-3.6,4.4
0.8,-11.0,-2.8,4.5
0.802,-10.9,-2.7,4.2
0.805,-11.0,-2.5,3.8
0.9,-11.0,-2.4,3.6
0.902,-11.7,-3.0,3.5
0.904,-12.6,-4.3,3.5
0.905,-13.3,-3.2,4.5
0.907,-13.2,-5.6,4.1
1.0,-11.0,-8.3,1.6
1.002,-8.6,-5.6,2.3
1.005,-8.1,-5.1,1.4
1.015,-8.7,-5.7,1.0
1.017,-8.4,-4.2,1.6
1.125,-7.8,-3.1,2.2
1.129,-7.9,-2.7,2.5
1.136,-8.2,-2.1,2.3
1.163,-8.2,-1.7,2.3
1.165,-8.2,-1.8,2.4
1.227,-8.4,-2.3,2.3
1.228,-8.6,-2.6,2.5
1.23,-8.5,-2.8,2.5
1.232,-8.4,-3.0,2.4
1.233,-8.3,-3.2,2.4
1.235,-8.5,-3.3,2.4
1.325,-9.1,-3.4,2.4
1.327,-9.7,-3.3,2.0
1.329,-10.3,-3.4,2.0
1.33,-11.8,-3.4,2.2
1.332,-13.4,-3.6,2.7
1.425,-14.3,-3.9,2.7
1.428,-13.5,-4.0,2.5
1.43,-12.2,-4.0,2.1
1.432,-11.5,-3.8,2.1
1.434,-11.6,-3.3,2.2
1.532,-11.4,-3.1,1.5
1.549,-10.5,-3.2,0.8
1.551,-10.1,-2.8,0.7
1.554,-10.6,-2.0,1.5
1.556,-11.4,-1.2,2.0
1.625,-11.6,-0.7,1.6
1.627,-10.7,-1.0,1.5
1.628,-9.7,-1.3,1.3
1.638,-8.9,-1.7,1.3
1.639,-8.0,-2.0,1.2
1.7,-7.6,-2.1,0.9
1.702,-7.5,-1.8,0.8
1.703,-7.4,-1.7,0.7
1.705,-7.5,-1.8,0.7
1.711,-7.7,-1.8,0.6
1.798,-7.6,-1.8,0.6
1.799,-7.4,-1.8,0.6
1.801,-7.3,-1.8,0.6
1.803,-7.2,-1.8,0.5
1.9,-7.0,-1.9,0.6
1.912,-7.1,-2.0,0.6
1.915,-7.7,-2.2,0.9
1.918,-8.5,-2.2,1.0
1.92,-8.9,-2.2,0.9
2.009,-8.9,-2.2,1.2
2.011,-9.7,-2.3,1.4
2.013,-11.3,-2.4,1.3
2.014,-13.3,-2.5,1.1
2.017,-15.0,-2.8,1.2
2.1,-15.3,-3.2,1.6
2.106,-13.6,-3.4,2.9
2.108,-12.0,-3.1,4.1
2.109,-10.6,-2.5,4.3
2.111,-9.5,-2.0,3.8
2.2,-9.3,-2.2,2.9
2.201,-10.4,-2.4,2.1
2.203,-11.2,-2.1,1.6
2.205,-11.1,-1.9,1.4
2.206,-11.1,-1.9,1.3
2.3,-10.7,-1.9,1.4
2.302,-9.7,-1.9,1.6
2.303,-8.7,-2.2,1.6
2.305,-7.6,-2.5,1.3
2.425,-6.7,-2.8,1.1
2.427,-6.4,-3.1,1.0
2.428,-6.6,-3.5,1.1
2.43,-6.9,-3.5,1.1
2.432,-7.0,-3.2,1.3
2.531,-7.1,-2.9,1.7
2.533,-7.3,-2.7,1.9
2.534,-7.2,-2.4,1.8
2.536,-6.9,-1.2,2.2
2.538,-7.3,-1.1,2.6
2.539,-8.0,-1.4,2.7
2.541,-8.9,-1.0,3.1
2.625,-10.1,-2.9,3.0
2.626,-11.1,-3.4,2.5
2.634,-11.7,-3.0,2.4
2.645,-13.1,-3.2,2.1
2.647,-13.8,-3.2,1.9
2.724,-13.8,-3.8,2.0
2.726,-12.8,-3.5,2.4
2.728,-11.2,-3.2,2.4
2.729,-9.2,-3.0,1.9
2.824,-7.7,-2.8,1.6
2.826,-8.8,-2.7,1.6
2.828,-11.0,-2.6,1.8
2.829,-11.6,-2.8,1.9
2.831,-11.5,-2.7,2.0
2.924,-11.0,-2.4,1.7
2.926,-9.9,-2.3,1.7
2.928,-9.1,-1.9,1.6
2.929,-8.6,-1.8,1.6
2.936,-8.3,-1.9,1.4
3.025,-8.2,-2.0,1.2
3.026,-8.3,-2.1,0.8
3.028,-8.3,-2.2,0.6
3.044,-8.3,-2.1,0.5
3.046,-8.3,-1.9,0.5
3.138,-8.0,-1.9,0.7
3.139,-7.6,-1.9,0.8
3.145,-7.3,-1.9,0.6
3.146,-7.4,-1.9,0.4
3.148,-7.6,-2.0,0.3
3.224,-8.1,-2.1,0.3
3.226,-8.8,-2.3,0.6
3.228,-9.4,-2.3,0.9
3.229,-9.6,-2.1,0.9
3.231,-10.3,-1.9,0.8
3.324,-12.1,-2.1,0.8
3.326,-13.8,-2.1,1.0
3.328,-13.8,-2.5,1.7
3.329,-11.7,-2.6,2.8
3.331,-10.0,-2.2,3.4
3.428,-9.1,-1.8,3.6
3.43,-9.4,-1.5,2.9
3.44,-10.5,-1.8,2.1
3.442,-11.6,-2.3,1.4
3.443,-11.7,-2.2,1.1
3.524,-11.0,-1.9,1.2
3.525,-10.3,-1.8,1.6
3.527,-9.6,-1.6,2.0
3.529,-8.8,-1.8,2.2
3.53,-7.9,-1.9,2.0
3.624,-7.0,-2.4,1.4
3.626,-6.7,-3.0,1.2
3.628,-6.9,-3.0,1.4
3.633,-6.9,-3.0,1.2
3.634,-6.8,-2.9,1.2
3.725,-6.9,-2.7,1.5
3.726,-7.3,-2.4,1.9
3.728,-7.5,-2.3,2.0
3.73,-7.2,-2.1,2.0
3.731,-7.1,-2.3,1.9
3.824,-7.8,-2.5,1.9
3.835,-8.7,-3.0,1.9
3.836,-9.4,-3.4,1.9
3.838,-10.5,-3.4,1.9
3.84,-11.7,-3.4,2.1
3.924,-12.2,-3.3,2.0
3.926,-13.7,-3.3,2.1
3.928,-14.7,-3.2,2.4
3.929,-14.6,-3.1,2.9
3.937,-13.2,-3.0,2.8
4.024,-10.9,-3.0,2.1
4.026,-8.9,-3.1,1.4
4.028,-7.7,-2.8,1.4
4.034,-7.9,-2.7,1.6
4.036,-9.6,-3.2,1.3
4.129,-10.9,-3.6,1.2
4.135,-12.0,-3.3,2.1
4.137,-12.5,-3.4,2.1
4.139,-11.2,-2.9,1.8
4.14,-9.8,-2.1,1.6
4.224,-9.2,-1.7,1.5
4.226,-8.8,-1.5,1.5
4.227,-8.5,-1.4,1.4
4.234,-8.4,-1.8,1.4
4.236,-8.7,-1.8,1.4
4.324,-8.9,-1.6,1.0
4.325,-8.6,-1.5,0.6
4.327,-8.1,-1.7,0.5
4.328,-7.8,-1.8,0.5
4.433,-7.5,-2.0,0.3
4.435,-7.5,-2.2,0.3
4.437,-7.5,-2.3,0.1
4.439,-7.6,-2.4,0.1
4.44,-7.9,-2.4,0.1
4.525,-8.4,-2.5,0.4
4.526,-8.6,-2.3,0.7
4.528,-9.0,-2.1,0.8
4.534,-10.6,-2.1,0.7
4.536,-12.5,-2.0,0.7
4.624,-13.9,-2.1,0.6
4.626,-12.8,-2.3,1.1
4.627,-10.2,-2.4,2.2
4.629,-8.8,-2.3,3.0
4.631,-8.7,-2.0,3.2
4.724,-10.1,-1.8,3.0
4.726,-11.4,-2.2,2.2
4.727,-12.0,-2.4,1.2
4.732,-12.1,-2.0,0.8
4.734,-11.4,-1.5,1.1
4.824,-10.3,-1.4,1.8
4.826,-9.0,-1.5,2.1
4.827,-8.1,-1.7,2.0
4.829,-7.4,-2.3,1.7
4.835,-7.0,-3.0,1.3
4.924,-6.9,-3.5,1.3
4.926,-7.0,-3.7,1.3
4.927,-7.2,-3.6,1.3
4.929,-7.3,-3.2,1.5
4.95,-7.6,-2.9,2.1
5.024,-8.2,-2.5,2.6
5.026,-8.2,-2.1,2.6
5.027,-7.9,-1.9,2.6
5.029,-8.3,-2.1,2.7
5.031,-9.0,-2.4,2.7
5.123,-9.3,-2.7,2.6
5.125,-10.2,-3.1,2.5
5.127,-11.5,-3.1,2.5
5.133,-11.7,-3.2,2.0
5.134,-12.4,-3.2,2.2
5.224,-14.4,-3.4,2.2
5.231,-14.9,-3.4,2.5
5.232,-13.4,-3.5,2.6
5.234,-11.7,-3.5,1.9
5.236,-9.7,-3.2,1.2
5.324,-7.9,-2.8,1.1
5.33,-7.4,-2.6,1.3
5.331,-8.8,-2.7,1.3
5.344,-10.3,-2.9,1.5
5.346,-11.3,-3.1,1.9
5.424,-12.0,-3.2,2.5
5.426,-12.1,-2.9,2.2
5.431,-11.0,-2.2,2.0
5.432,-9.9,-1.5,2.1
5.434,-9.2,-1.0,2.1
5.524,-8.6,-0.5,2.0
5.526,-8.2,-0.3,1.7
5.527,-8.0,-0.7,1.5
5.529,-8.3,-1.1,1.1
5.531,-8.4,-1.3,0.9
5.624,-8.4,-1.7,0.7
5.63,-8.3,-2.0,0.9
5.632,-8.2,-1.9,0.8
5.634,-7.9,-1.8,0.6
5.635,-7.9,-1.7,0.6
5.724,-8.0,-1.5,0.5
5.725,-8.3,-1.4,0.5
5.744,-8.3,-1.6,0.6
5.747,-8.4,-1.9,0.9
5.749,-9.0,-1.9,1.1
5.824,-10.5,-1.7,0.8
5.826,-12.3,-1.8,0.4
5.827,-13.3,-2.1,0.6
5.829,-12.9,-2.6,1.3
5.831,-11.3,-2.7,2.5
5.924,-10.3,-2.5,3.1
5.925,-9.5,-2.2,3.1
5.927,-9.2,-1.8,2.8
5.932,-10.3,-1.9,2.1
5.934,-11.5,-1.9,1.5
6.023,-11.8,-1.3,1.4
6.025,-11.7,-0.9,1.6
6.026,-11.2,-1.2,1.8
6.028,-10.1,-1.2,2.0
6.124,-9.0,-1.6,1.9
6.126,-8.3,-2.2,1.5
6.137,-7.6,-2.6,1.3
6.138,-7.2,-2.9,1.1
6.14,-7.0,-3.0,0.9
6.225,-6.9,-3.1,1.1
6.23,-7.3,-3.0,1.7
6.232,-7.6,-2.5,1.8
6.24,-7.3,-2.1,1.7
6.241,-7.1,-2.1,1.8
6.323,-7.2,-2.2,2.0
6.326,-7.5,-2.4,2.2
6.328,-7.9,-2.8,2.0
6.334,-8.6,-3.3,2.1
6.335,-9.9,-3.5,2.3
6.424,-11.4,-3.5,2.7
6.429,-12.1,-3.7,2.5
6.431,-11.7,-3.1,2.5
6.433,-12.7,-2.9,2.5
6.435,-14.0,-2.7,2.7
6.525,-14.3,-2.7,3.0
6.539,-13.9,-3.3,2.8
6.54,-12.1,-3.5,2.6
6.542,-9.5,-3.0,2.5
6.548,-7.4,-2.3,2.6
6.626,-7.7,-2.1,2.5
6.628,-9.5,-2.3,2.3
6.629,-10.8,-2.5,2.5
6.631,-11.9,-2.6,2.3
6.632,-12.3,-2.7,2.0
6.724,-11.6,-2.3,2.1
6.726,-10.7,-2.0,2.4
6.728,-10.2,-1.4,2.4
6.729,-9.8,-1.0,2.2
6.731,-9.2,-0.8,1.9
6.828,-9.0,-0.9,1.7
6.83,-9.1,-1.4,1.5
6.831,-9.2,-1.6,1.1
6.833,-9.0,-1.7,1.0
6.835,-8.7,-1.8,1.1
6.924,-8.3,-1.6,1.3
6.93,-7.7,-1.4,1.3
6.931,-7.2,-1.2,1.1
6.934,-7.1,-1.1,1.1
6.935,-7.0,-1.2,1.1
7.049,-6.9,-1.2,1.2
7.05,-7.1,-1.4,1.3
7.052,-7.3,-1.7,1.5
7.054,-7.6,-1.7,1.5
7.055,-8.4,-1.4,1.2
7.126,-10.0,-1.4,1.0
7.127,-12.0,-1.4,0.9
7.129,-13.3,-1.9,1.3
7.131,-12.9,-2.4,2.0
7.132,-11.9,-2.4,2.8
7.134,-11.4,-2.2,3.3
7.226,-10.7,-1.7,2.9
7.228,-10.2,-1.4,1.8
7.23,-11.5,-1.6,1.0
7.242,-13.1,-1.4,0.9
7.327,-13.1,-1.4,1.5
7.329,-12.4,-1.7,1.4
7.33,-11.3,-1.7,1.4
7.332,-9.9,-2.0,1.3
7.334,-8.7,-2.5,1.0
7.428,-7.8,-2.8,0.8
7.43,-7.2,-3.1,0.5
7.431,-7.0,-3.4,0.4
7.433,-7.1,-3.6,0.7
7.435,-7.3,-3.4,1.1
7.523,-7.3,-2.9,1.4
7.525,-7.1,-2.7,1.7
7.527,-7.1,-2.5,2.0
7.528,-7.0,-2.2,2.2
7.535,-6.8,-2.2,2.1
7.623,-6.9,-2.3,1.9
7.628,-7.7,-2.8,2.0
7.63,-9.0,-3.2,2.5
7.643,-10.3,-3.3,2.7
7.723,-11.1,-3.4,2.7
7.725,-10.8,-3.4,2.8
7.727,-10.0,-3.0,2.9
7.731,-10.3,-2.8,2.6
7.733,-11.6,-2.8,2.6
7.825,-13.2,-3.3,2.8
7.827,-15.1,-4.1,2.8
7.829,-15.5,-4.6,2.5
7.83,-12.4,-4.3,2.6
7.832,-9.0,-3.7,2.6
7.924,-7.4,-3.3,2.6
7.93,-8.2,-3.1,2.5
7.931,-10.0,-2.8,2.1
7.933,-11.3,-2.7,1.7
7.935,-12.4,-2.3,1.4
8.023,-13.0,-2.0,1.6
8.025,-12.4,-1.7,2.3
8.027,-11.6,-1.7,2.5
8.042,-10.5,-1.2,2.3
8.043,-9.9,-0.8,1.9
8.11,-9.6,-0.7,1.5
8.111,-9.2,-1.1,1.2
8.113,-9.1,-1.3,1.0
8.115,-8.8,-1.4,0.8
8.119,-8.3,-1.6,0.7
8.221,-7.8,-1.6,0.6
8.223,-7.4,-1.6,0.7
8.228,-7.0,-1.5,0.7
8.229,-6.7,-1.4,0.7
8.324,-6.7,-1.4,0.7
8.326,-6.8,-1.5,0.7
8.328,-6.9,-1.5,0.9
8.329,-7.2,-1.6,1.3
8.331,-7.8,-2.1,1.4
8.333,-8.6,-2.5,1.2
8.424,-9.5,-2.5,1.2
8.426,-11.1,-2.4,1.4
8.436,-12.8,-2.6,1.4
8.438,-13.3,-3.0,1.8
8.447,-12.7,-2.8,2.9
8.522,-12.4,-2.5,3.5
8.524,-11.9,-2.1,3.5
8.526,-10.6,-1.9,3.1
8.527,-9.5,-1.8,2.3
8.529,-9.7,-2.0,1.5
8.623,-11.2,-1.9,1.2
8.625,-12.0,-1.9,1.2
8.627,-12.2,-2.0,1.0
8.633,-12.0,-2.2,0.8
8.635,-11.1,-2.6,0.7
8.727,-9.7,-3.1,0.7
8.729,-8.3,-3.2,0.4
8.73,-7.2,-3.3,0.1
8.732,-6.8,-3.6,-0.1
8.734,-6.7,-3.8,-0.4
8.823,-6.6,-3.8,-0.3
8.833,-6.6,-3.9,-0.1
8.835,-7.0,-3.7,0.4
8.836,-7.1,-3.2,0.6
8.838,-7.0,-3.0,0.9
8.923,-7.2,-2.9,1.1
8.925,-7.4,-3.0,1.4
8.926,-7.7,-3.2,1.5
8.928,-7.9,-3.6,1.8
8.93,-8.7,-3.8,2.0
9.023,-9.9,-4.0,2.2
9.025,-10.9,-3.8,2.5
9.026,-11.3,-3.6,2.5
9.028,-11.6,-3.1,2.7
9.03,-12.8,-3.1,3.0
9.126,-13.7,-3.2,3.4
9.128,-13.8,-3.6,3.6
9.13,-12.8,-4.1,3.0
9.132,-10.9,-4.3,2.3
9.134,-9.2,-4.0,2.0
9.223,-8.6,-3.5,2.1
9.225,-9.9,-3.1,2.2
9.226,-11.7,-2.8,2.0
9.228,-13.0,-2.3,2.1
9.23,-13.4,-1.8,2.3
9.322,-12.7,-1.7,2.1
9.324,-11.5,-1.6,2.0
9.325,-10.5,-1.6,1.7
9.327,-9.8,-1.5,1.4
9.422,-9.4,-1.6,1.2
9.424,-9.1,-1.6,0.9
9.426,-8.9,-1.5,0.7
9.427,-8.9,-1.5,0.6
9.432,-9.1,-1.6,0.6
9.522,-9.0,-1.5,0.5
9.524,-8.6,-1.4,0.6
9.526,-8.2,-1.5,0.5
9.527,-7.9,-1.6,0.3
9.529,-7.5,-1.6,0.2
9.623,-7.3,-1.7,0.1
9.624,-7.3,-1.8,0.3
9.626,-7.6,-2.0,0.4
9.627,-7.7,-2.0,0.6
9.629,-7.6,-1.8,0.7
9.722,-8.2,-1.8,1.0
9.724,-9.6,-1.8,1.2
9.726,-10.9,-1.7,1.2
9.727,-11.8,-1.8,1.1
9.729,-12.2,-2.0,1.4
9.823,-11.8,-1.9,2.4
9.825,-11.6,-1.8,2.9
9.831,-10.9,-1.6,3.0
9.833,-9.8,-1.7,2.5
9.834,-9.8,-1.9,1.8
9.927,-11.2,-2.3,1.3
9.929,-12.1,-2.4,1.2
9.93,-12.0,-2.4,1.4
9.932,-11.6,-2.6,1.6
9.944,-10.5,-2.4,1.9
10.023,-9.4,-2.3,2.0
10.025,-8.5,-2.5,1.8
10.026,-7.9,-2.8,1.6
10.028,-7.5,-3.1,1.6
10.03,-7.6,-3.4,1.6
10.122,-7.7,-3.5,1.8
10.124,-7.9,-3.4,2.0
10.125,-7.8,-3.2,2.3
10.127,-7.6,-3.0,2.6
10.132,-7.4,-3.0,2.8
10.223,-7.3,-3.1,2.8
10.224,-7.6,-3.4,2.6
10.226,-8.6,-3.9,2.5
10.228,-10.0,-4.3,2.4
10.229,-12.1,-4.6,2.6
10.323,-13.2,-5.0,2.5
10.324,-13.2,-4.9,2.6
10.326,-13.6,-4.8,2.3
10.337,-13.5,-4.1,2.3
10.344,-13.4,-3.5,2.0
10.423,-12.9,-2.9,1.5
10.425,-12.4,-2.7,1.2
10.426,-11.1,-2.8,1.2
10.431,-9.5,-2.5,0.9
10.433,-9.4,-2.4,0.7
10.523,-10.8,-2.5,0.5
10.526,-11.9,-2.8,0.3
10.529,-12.0,-2.8,0.4
10.531,-11.2,-2.8,0.8
10.533,-10.2,-2.4,1.1
10.623,-9.3,-1.9,1.0
10.624,-8.8,-1.6,1.0
10.626,-8.5,-1.5,0.8
10.628,-8.3,-1.3,0.6
10.633,-8.0,-1.0,0.5
10.722,-7.9,-0.9,0.4
10.724,-7.9,-1.0,0.5
10.736,-7.9,-1.2,0.5
10.748,-7.7,-1.2,0.5
10.75,-7.7,-1.4,0.3
10.823,-7.8,-1.6,0.0
10.824,-7.8,-1.7,0.1
10.826,-8.1,-2.0,-0.2
10.831,-8.0,-2.0,-0.1
10.834,-7.7,-2.0,0.1
10.926,-8.1,-2.2,0.4
10.928,-9.4,-2.4,1.0
10.93,-10.8,-2.3,1.5
10.931,-11.9,-2.2,1.8
11.023,-12.9,-2.3,1.8
11.031,-12.5,-1.8,2.5
11.032,-11.2,-1.1,2.9
11.034,-10.3,-0.6,2.8
11.036,-10.5,-0.5,2.3
11.126,-12.0,-1.1,2.1
11.128,-13.2,-1.9,2.4
11.14,-13.1,-2.8,2.2
11.142,-12.3,-3.3,1.7
11.145,-11.3,-3.1,1.8
11.222,-10.0,-3.2,1.5
11.224,-8.7,-3.6,1.3
11.229,-8.1,-3.1,1.6
11.231,-7.9,-3.4,1.3
11.233,-7.8,-3.6,1.4
11.322,-7.6,-3.5,1.4
11.324,-7.6,-3.4,1.6
11.326,-7.6,-3.4,2.0
11.327,-7.5,-3.2,2.2
11.329,-7.2,-3.0,2.3
11.422,-7.2,-3.1,2.5
11.424,-7.3,-3.1,2.3
11.426,-7.8,-3.2,2.1
11.427,-9.0,-3.5,1.9
11.429,-10.5,-3.8,2.2
11.522,-11.6,-3.9,2.4
11.533,-11.5,-3.9,2.1
11.535,-11.1,-3.5,1.9
11.537,-12.6,-3.3,1.9
11.538,-13.6,-3.1,2.1
11.622,-12.6,-3.0,2.4
11.624,-13.1,-3.4,1.9
11.626,-13.3,-3.3,1.6
11.629,-11.3,-3.0,1.7
11.63,-9.3,-2.8,1.6
11.722,-8.4,-2.7,1.2
11.723,-9.3,-2.8,1.0
11.725,-10.7,-2.9,0.7
11.734,-11.8,-3.0,0.7
11.735,-12.3,-3.0,0.9
11.822,-11.6,-2.5,1.0
11.824,-10.5,-2.0,1.1
11.826,-9.7,-1.4,0.9
11.827,-9.0,-1.0,1.0
11.829,-8.4,-0.9,1.0
11.923,-8.3,-1.0,0.8
11.926,-8.4,-1.4,0.5
11.929,-8.4,-1.5,0.3
11.931,-8.2,-1.7,0.2
11.933,-8.1,-1.9,0.2
12.022,-7.8,-1.8,0.3
12.024,-7.5,-1.7,0.4
12.031,-7.3,-1.6,0.4
12.033,-7.3,-1.5,0.5
12.034,-7.3,-1.5,0.5
12.127,-7.4,-1.6,0.6
12.128,-7.5,-1.9,0.7
12.13,-7.8,-2.4,0.7
12.132,-8.4,-2.1,0.9
12.133,-9.4,-1.3,1.5
12.222,-11.1,-1.1,1.9
12.224,-13.5,-0.6,1.9
12.226,-15.5,-0.4,2.3
12.227,-14.3,-1.0,3.0
12.239,-11.5,-1.2,3.6
12.322,-9.4,-1.2,3.3
12.324,-8.9,-1.6,2.7
12.325,-10.6,-2.5,2.0
12.327,-12.3,-3.6,1.2
12.329,-12.9,-4.2,0.8
12.422,-12.6,-3.9,0.8
12.423,-11.6,-2.9,1.3
12.428,-10.3,-2.3,1.8
12.43,-9.0,-1.8,1.8
12.432,-8.1,-1.8,1.8
12.521,-7.6,-2.5,1.5
12.523,-7.3,-3.3,1.1
12.524,-7.2,-3.9,0.9
12.526,-7.2,-4.4,1.1
12.597,-7.1,-4.4,1.2
12.598,-7.1,-4.0,1.6
12.604,-7.1,-3.3,1.8
12.605,-7.4,-2.9,2.0
12.618,-7.6,-3.0,2.6
12.72,-7.9,-2.7,3.1
12.722,-8.2,-2.8,3.2
12.724,-9.0,-2.9,3.0
12.732,-10.4,-3.3,2.7
12.826,-11.8,-3.7,2.6
12.828,-11.8,-3.9,2.2
12.83,-11.6,-3.5,2.3
12.831,-12.6,-3.6,2.1
12.833,-13.3,-3.5,2.0
12.835,-14.1,-3.6,2.0
12.922,-13.4,-3.5,1.8
12.927,-11.4,-3.2,1.7
12.929,-10.1,-2.9,1.8
12.931,-8.8,-2.4,1.9
12.933,-8.4,-2.4,1.9
13.022,-10.1,-2.6,1.3
13.029,-11.3,-2.7,1.1
13.031,-12.2,-2.5,1.4
13.044,-12.9,-2.0,1.7
13.046,-12.5,-1.3,1.5
13.122,-11.1,-0.5,1.4
13.123,-10.1,-0.0,1.5
13.125,-9.4,0.1,1.7
13.127,-8.8,-0.1,1.6
13.128,-8.3,-0.5,1.3
13.221,-8.0,-0.9,0.9
13.228,-7.7,-1.4,0.6
13.229,-7.6,-1.7,0.3
13.231,-7.5,-1.8,0.2
13.233,-7.3,-1.8,0.3
13.322,-7.2,-1.7,0.4
13.323,-7.1,-1.7,0.6
13.325,-7.2,-1.4,1.1
13.327,-7.4,-1.1,1.1
13.328,-7.6,-1.1,1.0
13.421,-7.7,-1.1,0.9
13.424,-7.8,-1.4,1.0
13.435,-8.2,-1.9,1.1
13.445,-8.6,-2.1,1.1
13.45,-9.8,-2.3,1.1
13.525,-11.9,-2.5,1.1
13.527,-14.2,-2.7,1.0
13.529,-15.6,-3.1,0.9
13.53,-14.7,-2.8,2.0
13.532,-13.2,-2.4,2.6
13.623,-12.3,-2.6,1.9
13.624,-10.2,-2.5,1.8
13.626,-9.4,-2.2,2.2
13.628,-11.3,-2.3,1.7
13.629,-12.1,-2.6,1.3
13.724,-11.6,-2.5,1.2
13.732,-11.4,-2.5,1.0
13.734,-10.5,-2.5,0.9
13.735,-9.2,-2.7,0.8
13.737,-8.3,-2.9,0.7
13.822,-7.9,-3.2,0.6
13.833,-7.7,-3.2,0.8
13.835,-7.6,-3.1,0.6
13.837,-7.5,-3.2,0.8
13.838,-7.8,-3.0,1.3
13.922,-8.0,-2.7,1.6
13.923,-7.9,-2.5,1.5
13.931,-7.6,-2.3,1.8
13.933,-7.8,-2.4,2.1
13.935,-8.0,-2.4,2.3
14.022,-8.0,-2.5,2.3
14.024,-8.3,-2.8,2.5
14.027,-9.0,-3.0,2.7
14.029,-9.7,-2.8,2.8
14.036,-9.9,-2.5,2.7
14.122,-10.1,-2.1,2.4
14.123,-11.5,-2.1,2.5
14.125,-13.5,-2.4,2.7
14.163,-13.1,-2.5,2.6
14.166,-10.1,-2.5,2.1
14.247,-8.3,-2.3,1.3
14.249,-8.6,-2.2,1.1
14.251,-9.8,-2.3,1.4
14.256,-10.3,-2.7,1.6
14.322,-10.3,-3.2,1.6
14.323,-10.4,-3.5,1.3
14.33,-10.7,-3.2,0.9
14.332,-11.1,-2.5,0.9
14.334,-11.1,-2.2,1.1
14.422,-10.8,-1.9,1.3
14.428,-10.1,-1.6,1.4
14.43,-9.6,-1.4,1.3
14.431,-9.3,-1.2,1.3
14.433,-9.1,-1.3,1.1
14.522,-9.3,-1.7,0.9
14.523,-9.4,-1.8,0.8
14.525,-9.5,-1.9,0.6
14.527,-9.5,-2.0,0.5
14.528,-9.3,-2.1,0.4
14.627,-9.3,-2.2,0.4
14.628,-9.3,-2.2,0.4
14.63,-9.4,-2.3,0.4
14.631,-9.1,-2.1,0.5
14.633,-8.8,-2.0,0.6
14.723,-8.7,-2.1,0.6
14.725,-8.7,-2.1,0.6
14.738,-9.2,-2.2,0.7
14.741,-9.6,-2.3,0.7
14.743,-9.4,-2.2,0.9
14.822,-9.3,-2.2,1.1
14.823,-9.0,-2.1,1.2
14.825,-8.5,-2.0,1.2
14.826,-8.3,-2.2,1.3
14.828,-8.3,-2.5,1.4
14.922,-8.6,-2.8,1.4
14.924,-8.9,-2.9,1.5
14.926,-9.4,-2.8,1.6
14.929,-10.1,-2.6,1.7
14.941,-10.7,-2.5,1.9
15.022,-11.1,-2.3,1.9
15.024,-10.8,-2.2,2.1
15.025,-10.1,-2.1,2.3
15.027,-9.3,-2.1,2.4
15.029,-9.0,-2.5,2.2
15.149,-9.1,-2.8,2.2
15.15,-9.5,-3.1,2.1
15.152,-9.8,-3.2,2.1
15.154,-10.1,-2.9,2.2
15.16,-10.3,-2.4,2.4
15.221,-10.3,-2.3,2.2
15.223,-10.2,-2.0,2.3
15.225,-9.9,-2.0,2.2
15.226,-9.7,-2.2,2.0
15.228,-9.6,-2.4,1.9
15.321,-9.4,-2.5,1.7
15.327,-9.5,-2.4,1.6
15.329,-9.5,-2.4,1.5
15.34,-9.6,-2.4,1.5
15.343,-9.6,-2.3,1.5
15.421,-9.6,-2.2,1.5
15.423,-9.7,-2.2,1.4
15.425,-9.7,-2.1,1.3
15.43,-9.7,-2.1,1.3
15.431,-9.5,-2.1,1.3
15.521,-9.4,-2.0,1.3
15.523,-9.3,-2.0,1.3
15.524,-9.2,-2.0,1.3
15.526,-9.2,-2.0,1.2
15.528,-9.1,-1.9,1.3
15.621,-9.1,-1.9,1.3
15.623,-9.1,-1.9,1.3
15.624,-9.1,-1.8,1.3
15.626,-9.1,-1.8,1.3
15.628,-9.1,-1.9,1.3
15.721,-9.2,-1.9,1.4
15.723,-9.2,-2.0,1.4
15.746,-9.2,-2.1,1.5
15.748,-9.2,-2.1,1.5
15.75,-9.3,-2.1,1.6
15.822,-9.3,-2.1,1.7
15.825,-9.4,-2.1,1.7
15.827,-9.4,-2.1,1.7
15.83,-9.5,-2.2,1.8
15.832,-9.5,-2.2,1.8
15.921,-9.5,-2.2,1.9
15.922,-9.5,-2.2,1.9
15.924,-9.5,-2.3,1.9
15.929,-9.5,-2.3,1.9
16.021,-9.5,-2.3,1.9
16.027,-9.6,-2.3,1.9
16.029,-9.6,-2.3,1.9
16.031,-9.6,-2.4,1.9
16.032,-9.6,-2.4,1.9
16.137,-9.6,-2.4,1.8
16.139,-9.6,-2.4,1.8
16.151,-9.6,-2.4,1.8
16.153,-9.5,-2.4,1.8
16.156,-9.5,-2.4,1.7
16.221,-9.5,-2.4,1.7
16.223,-9.5,-2.4,1.7
16.225,-9.5,-2.4,1.7
16.233,-9.4,-2.3,1.7
16.234,-9.4,-2.3,1.7
16.321,-9.5,-2.3,1.6
16.323,-9.4,-2.3,1.6
16.325,-9.4,-2.3,1.6
16.326,-9.4,-2.2,1.6
16.332,-9.4,-2.2,1.6
16.421,-9.4,-2.1,1.6
16.423,-9.4,-2.1,1.6
16.425,-9.4,-2.1,1.5
16.426,-9.4,-2.2,1.6
16.428,-9.4,-2.1,1.6
16.522,-9.4,-2.1,1.5
16.545,-9.4,-2.1,1.5
16.546,-9.4,-2.1,1.6
16.548,-9.4,-2.1,1.6
16.55,-9.4,-2.1,1.6
16.621,-9.4,-2.1,1.7
16.623,-9.5,-2.1,1.7
16.624,-9.4,-2.2,1.8
16.626,-9.7,-2.6,1.8
16.628,-9.7,-2.5,1.9
16.72,-9.6,-2.3,2.2
16.722,-9.9,-2.7,2.5
16.724,-10.2,-3.1,2.6
16.732,-9.9,-2.6,2.5
16.734,-9.6,-3.3,2.3
16.846,-9.8,-3.7,2.6
16.848,-10.4,-3.9,3.4
16.849,-10.6,-4.2,3.1
16.855,-10.2,-4.2,2.7
16.856,-10.1,-5.0,2.9
16.953,-10.4,-5.8,2.8
16.954,-10.1,-5.5,2.7
16.956,-9.5,-6.0,3.0
16.957,-9.5,-6.4,3.0
16.959,-9.2,-6.0,3.1
16.961,-8.7,-6.2,3.7
17.019,-8.7,-6.3,3.9
17.021,-8.5,-6.2,4.0
17.03,-8.2,-6.1,4.3
17.032,-7.8,-6.3,4.3
17.126,-7.5,-6.0,4.5
17.128,-6.6,-5.8,4.4
17.13,-5.8,-4.2,5.1
17.132,-4.9,-3.6,5.6
17.134,-4.7,-3.7,5.9
17.221,-4.3,-2.0,6.2
17.223,-3.6,-0.5,6.4
17.224,-3.3,-0.9,6.2
17.226,-3.8,0.2,6.8
17.238,-3.4,0.4,7.3
17.321,-3.0,-0.1,7.3
17.322,-3.4,-0.3,8.0
17.324,-3.1,-0.8,7.9
17.326,-2.7,-1.1,8.0
17.327,-2.2,-1.1,8.5
17.45,-2.2,-0.9,8.2
17.451,-2.3,-0.5,8.4
17.453,-1.9,-0.3,8.5
17.455,-1.4,-0.6,8.8
17.456,-1.5,-0.7,9.0
17.523,0.1,-0.6,9.9
17.53,-4.1,-1.4,8.7
17.531,-0.9,-0.5,9.6
17.533,-0.1,-0.7,9.4
17.535,-2.5,-0.4,9.2
17.536,-1.1,-0.6,9.6
17.626,-0.8,-1.0,9.6
17.63,-1.2,-0.8,10.1
17.658,-2.1,-1.2,9.7
17.668,-2.5,-0.7,9.7
17.722,-2.3,-1.1,9.7
17.723,-1.5,-1.8,9.6
17.725,-1.9,-1.3,9.6
17.733,-2.3,-0.5,9.5
17.821,-3.1,0.2,9.4
17.823,-2.6,0.8,9.5
17.824,-1.1,-1.2,9.5
17.826,3.1,-2.2,10.0
17.828,0.9,-0.4,10.0
17.921,-2.9,-2.3,8.6
17.923,-1.6,-1.6,9.5
17.924,-0.4,-1.0,9.7
17.93,-1.2,-1.4,9.4
17.932,-0.9,-1.4,9.6
18.021,-0.9,-1.5,9.6
18.023,-1.3,-1.8,9.4
18.024,-1.4,-1.8,9.4
18.036,-1.2,-1.3,9.6
18.038,-1.3,-1.2,9.7
18.128,-1.1,-1.2,9.9
18.13,-1.1,-1.3,9.8
18.131,-0.9,-1.2,9.8
18.133,-0.7,-1.0,9.8
18.135,-0.8,-1.0,9.7
18.205,-0.8,-1.1,9.8
18.207,-1.1,-1.3,9.9
18.208,-1.2,-1.3,10.0
18.21,-0.7,-1.4,9.8
18.212,-1.1,-1.3,9.5
