gyro_time_list,gyro_x_list,gyro_y_list,gyro_z_list
0.0,0.5,0.1,-0.0
0.001,-0.9,0.2,0.1
0.003,-1.2,-0.3,0.0
0.004,-0.4,-0.2,-0.1
0.083,-0.0,0.0,0.1
0.084,-0.1,-0.1,-0.0
0.086,0.0,-0.1,-0.1
0.087,0.0,-0.0,-0.0
0.089,-0.1,-0.0,-0.0
0.094,-0.2,-0.0,-0.1
0.194,-0.1,0.0,-0.0
0.196,-0.0,0.1,-0.0
0.198,-0.0,0.0,-0.0
0.2,-0.0,0.0,-0.0
0.31,-0.1,0.0,-0.0
0.322,-0.1,-0.0,-0.0
0.324,-0.1,0.0,0.0
0.326,-0.0,0.0,-0.0
0.328,-0.0,0.0,-0.0
0.343,-0.1,0.0,0.0
0.401,-0.0,0.0,0.0
0.402,-0.0,0.0,0.0
0.404,0.0,0.0,0.0
0.406,0.1,0.0,0.0
0.407,0.2,0.1,-0.0
0.497,0.1,0.1,-0.0
0.498,-0.1,0.1,0.0
0.5,-0.2,0.1,0.1
0.501,-0.4,0.2,0.2
0.503,-0.3,0.3,0.3
0.595,-0.3,0.4,0.4
0.596,-0.5,0.6,0.5
0.598,-0.7,0.7,0.7
0.6,-0.6,0.7,0.7
0.601,-0.2,0.9,0.8
0.711,-0.2,1.1,0.8
0.713,-0.9,1.3,1.0
0.714,-2.3,1.5,1.5
0.724,-3.2,1.7,1.9
0.725,-3.1,2.0,2.1
0.8,-3.1,2.4,2.3
0.802,-3.5,2.8,2.5
0.803,-4.1,3.1,2.6
0.805,-4.8,3.5,2.7
0.807,-6.4,3.8,2.5
0.897,-8.9,3.5,2.4
0.898,-10.2,2.8,2.5
0.9,-9.9,1.9,2.1
0.902,-8.8,0.8,1.9
0.904,-8.5,0.6,1.8
0.997,-8.3,0.8,1.6
0.999,-6.2,0.5,1.8
1.0,-3.6,0.5,2.1
1.002,-2.5,0.5,2.3
1.004,-2.7,0.4,2.4
1.114,-3.3,0.1,2.7
1.116,-4.0,-0.3,2.9
1.125,-4.7,-0.5,3.1
1.127,-5.0,-0.8,3.2
1.129,-4.7,-1.0,3.3
1.203,-4.1,-1.1,3.3
1.204,-3.4,-1.1,3.4
1.209,-2.5,-1.1,3.4
1.211,-1.3,-1.0,3.2
1.213,-0.1,-0.8,2.8
1.3,0.7,-0.5,2.3
1.302,1.4,-0.0,1.6
1.304,1.9,0.3,1.1
1.305,2.1,0.4,0.6
1.31,1.9,0.4,0.1
1.399,1.5,0.3,-0.2
1.401,1.2,0.3,-0.4
1.403,0.7,0.2,-0.5
1.404,0.2,0.0,-0.7
1.509,-0.3,-0.1,-0.8
1.511,-0.5,-0.2,-0.9
1.521,-0.0,-0.2,-0.7
1.522,0.3,-0.2,-0.7
1.524,0.5,-0.3,-0.7
1.603,0.6,-0.3,-0.7
1.605,0.4,-0.4,-0.7
1.607,-0.2,-0.3,-0.8
1.609,-0.8,-0.3,-1.0
1.611,-1.3,-0.3,-1.1
1.697,-1.5,-0.2,-1.3
1.698,-1.1,-0.1,-1.2
1.7,-0.6,-0.0,-1.2
1.702,-0.3,0.1,-1.1
1.703,0.0,0.1,-1.0
1.8,0.3,-0.0,-0.9
1.802,0.5,-0.1,-0.7
1.804,0.6,-0.0,-0.6
1.806,0.6,0.0,-0.4
1.807,0.7,0.1,-0.4
1.912,0.7,0.1,-0.3
1.921,0.7,0.1,-0.3
1.923,0.7,0.2,-0.3
1.925,0.7,0.3,-0.3
1.926,0.7,0.2,-0.3
2.002,0.6,0.2,-0.3
2.004,0.5,0.2,-0.3
2.006,0.5,0.2,-0.3
2.007,0.4,0.1,-0.2
2.009,0.2,-0.0,-0.2
2.101,-0.1,-0.1,-0.2
2.102,-0.3,-0.2,-0.2
2.105,-0.6,-0.3,-0.1
2.106,-0.9,-0.4,-0.0
2.108,-1.4,-0.5,0.1
2.2,-1.7,-0.5,0.2
2.202,-1.7,-0.5,0.3
2.204,-1.6,-0.4,0.5
2.209,-1.4,-0.4,0.6
2.211,-0.9,-0.4,0.8
2.308,-0.4,-0.4,1.1
2.31,-0.1,-0.3,1.2
2.316,-0.6,-0.3,1.3
2.318,-0.9,-0.3,1.1
2.319,-1.5,-0.1,0.8
2.399,-1.1,-0.6,1.3
2.404,-0.9,-0.1,0.8
2.406,-0.1,0.0,1.0
2.408,0.0,-0.1,0.8
2.409,0.7,0.0,0.9
2.496,1.1,0.1,0.8
2.497,1.0,0.2,0.8
2.499,0.5,0.1,0.6
2.501,-0.3,0.1,0.4
2.506,-1.1,0.1,0.3
2.609,-0.8,-0.1,0.2
2.611,0.1,-0.2,0.3
2.613,0.8,-0.0,0.3
2.614,1.5,0.2,0.3
2.624,1.9,0.4,0.2
2.7,1.7,0.8,-0.1
2.701,1.0,-0.2,0.2
2.703,1.0,-0.3,0.2
2.705,1.4,-0.0,-0.1
2.706,1.6,-0.1,-0.2
2.796,1.2,-0.2,-0.4
2.798,0.2,-0.3,-0.7
2.799,0.2,-0.3,-0.8
2.801,0.8,-0.3,-0.9
2.807,1.0,-0.2,-1.2
2.896,1.3,-0.1,-1.1
2.903,1.9,-0.1,-1.1
2.904,2.2,-0.1,-1.0
2.906,2.0,-0.1,-1.0
2.907,1.7,-0.1,-0.9
3.011,1.6,-0.1,-0.9
3.012,1.4,0.1,-0.9
3.014,1.2,0.3,-0.8
3.024,0.9,0.4,-0.7
3.106,0.8,0.5,-0.4
3.108,0.8,0.5,-0.1
3.11,0.6,0.2,0.1
3.112,0.1,-0.0,0.2
3.117,-0.3,-0.0,0.2
3.2,-0.7,-0.0,0.1
3.202,-0.8,0.1,-0.1
3.204,-0.6,0.3,-0.2
3.205,-0.4,0.5,-0.4
3.207,-0.3,0.7,-0.5
3.296,0.0,0.7,-0.5
3.297,0.4,0.7,-0.5
3.3,0.6,0.7,-0.4
3.301,0.8,0.5,-0.2
3.303,0.7,0.3,-0.1
3.405,0.4,0.1,-0.0
3.406,-0.2,-0.2,0.1
3.413,-0.8,-0.4,0.2
3.423,-1.2,-0.4,0.2
3.424,-1.5,-0.5,0.3
3.499,-1.7,-0.5,0.2
3.501,-1.8,-0.6,0.3
3.502,-1.9,-0.4,0.3
3.508,-1.9,-0.3,0.4
3.51,-1.7,-0.4,0.5
3.599,-1.5,-0.3,0.6
3.601,-1.2,-0.2,0.6
3.602,-0.8,-0.0,0.7
3.604,-0.4,-0.0,0.7
3.606,-0.2,-0.3,0.6
3.696,-0.1,-0.4,0.5
3.698,-0.1,-0.4,0.3
3.699,-0.2,-0.3,0.1
3.701,-0.4,-0.3,-0.1
3.702,-0.8,-0.4,-0.4
3.777,-1.1,-0.4,-0.6
3.779,-1.3,-0.5,-0.8
3.788,-1.5,-0.6,-0.9
3.79,-1.5,-0.6,-1.0
3.792,-1.5,-0.5,-1.0
3.902,-1.5,-0.4,-1.0
3.904,-1.3,-0.3,-0.9
3.905,-1.1,-0.4,-0.8
3.907,-1.0,-0.6,-0.7
4.006,-1.0,-0.7,-0.6
4.008,-1.0,-0.7,-0.4
4.009,-1.0,-0.5,-0.2
4.011,-0.9,-0.5,0.0
4.012,-0.9,-0.4,0.2
4.014,-0.9,-0.4,0.4
4.1,-1.0,-0.5,0.7
4.104,-1.0,-0.4,1.0
4.107,-1.1,-0.4,1.2
4.109,-1.0,-0.2,1.5
4.111,-0.8,-0.1,1.7
4.212,-0.4,-0.1,1.9
4.221,0.0,-0.1,2.0
4.223,0.4,-0.1,1.7
4.229,0.9,0.2,1.5
4.231,1.2,0.3,1.1
4.3,1.4,0.3,0.6
4.302,1.3,0.0,0.2
4.306,1.0,-0.2,-0.4
4.308,0.2,-0.2,-0.8
4.309,-0.4,-0.0,-1.1
4.402,-0.7,0.0,-1.2
4.403,-1.3,0.0,-1.3
4.405,-2.0,0.0,-1.4
4.406,-2.2,0.1,-1.4
4.408,-1.2,0.2,-1.1
4.496,0.5,0.5,-0.7
4.501,1.6,0.7,-0.4
4.503,2.3,0.7,-0.1
4.505,3.1,0.6,0.2
4.506,3.7,0.4,0.5
4.606,4.0,0.3,0.7
4.608,3.9,0.1,0.8
4.61,3.6,0.1,0.7
4.613,3.1,0.1,0.5
4.615,2.6,0.0,0.3
4.698,2.0,-0.2,0.0
4.7,1.2,-0.3,-0.3
4.702,0.5,-0.3,-0.7
4.708,0.0,-0.1,-1.1
4.796,-0.3,0.1,-1.4
4.797,-0.5,0.3,-1.7
4.799,-0.6,0.3,-1.8
4.801,-0.6,0.2,-2.0
4.802,-0.6,0.4,-2.1
4.904,-0.5,0.5,-2.1
4.905,-0.3,0.4,-1.9
4.913,-0.2,0.4,-1.7
4.914,-0.1,0.3,-1.3
4.916,-0.1,0.3,-0.8
5.0,-0.2,0.2,-0.3
5.002,-0.3,0.2,0.3
5.003,-0.4,0.4,0.9
5.005,-0.6,0.3,1.5
5.006,-0.6,0.0,2.0
5.1,-0.7,-0.0,2.4
5.102,-0.7,0.1,2.7
5.104,-0.5,0.1,2.8
5.105,-0.1,0.1,2.8
5.107,0.4,0.1,2.8
5.203,0.9,0.0,2.6
5.205,1.4,-0.0,2.2
5.206,1.6,-0.1,1.8
5.208,1.6,-0.1,1.3
5.21,1.1,-0.2,0.7
5.341,0.3,-0.4,0.2
5.343,-0.5,-0.5,-0.4
5.345,-1.4,-0.5,-0.9
5.346,-2.1,-0.5,-1.3
5.356,-2.7,-0.6,-1.7
5.421,-3.1,-0.7,-2.0
5.423,-3.2,-0.6,-2.1
5.425,-2.9,-0.5,-2.1
5.426,-2.4,-0.4,-1.9
5.433,-1.9,-0.3,-1.7
5.434,-1.3,-0.3,-1.4
5.493,-0.8,-0.3,-1.1
5.494,-0.5,-0.3,-0.7
5.496,-0.3,-0.3,-0.3
5.497,-0.2,-0.3,0.1
5.598,-0.1,-0.2,0.5
5.599,-0.1,-0.1,0.8
5.601,-0.0,0.1,1.1
5.602,0.1,0.3,1.4
5.604,0.3,0.4,1.7
5.716,0.5,0.5,1.8
5.721,0.6,0.3,1.8
5.723,0.6,0.2,1.7
5.739,0.5,0.4,1.6
5.741,0.3,0.1,1.2
5.799,-0.0,-0.3,0.9
5.804,-0.4,-0.4,0.5
5.806,-0.6,-0.5,-0.0
5.807,-0.6,-0.3,-0.4
5.809,-0.5,-0.1,-0.7
5.899,-0.3,-0.0,-0.8
5.901,-0.3,-0.1,-0.8
5.902,-0.1,-0.1,-0.7
5.91,-0.1,-0.2,-0.6
5.913,-0.3,-0.1,-0.6
5.998,-0.2,0.0,-0.4
5.999,0.5,0.1,-0.1
6.001,1.3,0.2,0.2
6.002,1.8,0.3,0.3
6.011,2.2,0.2,0.4
6.104,2.6,0.1,0.5
6.105,2.7,0.0,0.3
6.12,2.5,-0.1,0.1
6.122,2.1,-0.2,-0.3
6.133,1.5,-0.1,-0.8
6.204,1.0,-0.0,-1.2
6.205,0.5,0.1,-1.5
6.207,0.1,0.3,-1.8
6.209,-0.2,0.3,-1.9
6.21,-0.5,0.2,-2.0
6.299,-0.6,0.2,-2.0
6.301,-0.6,0.2,-1.9
6.306,-0.4,0.2,-1.8
6.308,-0.3,0.2,-1.6
6.396,-0.1,0.1,-1.4
6.402,0.1,0.1,-1.2
6.406,0.2,-0.0,-0.9
6.407,0.1,-0.2,-0.6
6.409,-0.1,-0.2,-0.3
6.512,-0.5,-0.1,0.2
6.514,-0.9,-0.3,0.6
6.523,-1.2,-0.6,0.9
6.525,-1.2,-0.5,1.3
6.534,-1.1,-0.3,1.6
6.599,-0.9,-0.4,1.8
6.601,-0.7,-0.6,1.9
6.602,-0.7,-0.9,1.9
6.604,-0.9,-1.1,1.8
6.605,-1.2,-1.3,1.6
6.701,-1.5,-1.3,1.2
6.702,-1.8,-1.1,0.9
6.704,-1.9,-0.9,0.6
6.706,-2.1,-0.9,0.4
6.707,-2.2,-0.9,0.2
6.795,-2.3,-0.9,0.2
6.797,-2.2,-0.8,0.2
6.798,-2.2,-0.7,0.3
6.8,-1.9,-0.6,0.4
6.804,-1.7,-0.5,0.5
6.911,-1.4,-0.4,0.5
6.921,-1.3,-0.4,0.5
6.923,-1.4,-0.4,0.6
6.924,-1.5,-0.4,0.6
6.926,-1.6,-0.3,0.6
6.998,-1.7,-0.3,0.7
7.003,-1.7,-0.2,0.7
7.005,-1.6,-0.1,0.8
7.007,-1.4,0.0,0.9
7.008,-1.2,0.1,0.9
7.092,-1.0,0.2,1.0
7.094,-0.7,0.3,1.0
7.096,-0.4,0.3,1.0
7.104,-0.2,0.3,1.0
7.106,0.0,0.2,0.9
7.195,0.1,0.3,0.7
7.196,0.2,0.5,0.4
7.198,0.3,0.3,0.1
7.2,0.1,-0.0,-0.1
7.201,-0.4,-0.0,-0.4
7.309,-0.6,-0.2,-0.6
7.323,-0.2,-0.3,-0.8
7.326,0.2,-0.3,-0.9
7.328,-0.0,-0.4,-1.0
7.33,-0.2,-0.5,-1.1
7.404,-0.3,-0.5,-1.2
7.406,-0.4,-0.4,-1.3
7.408,-0.7,-0.4,-1.3
7.409,-0.5,-0.4,-1.2
7.411,-0.1,-0.2,-1.1
7.495,0.2,-0.2,-1.1
7.496,0.6,-0.2,-1.0
7.498,1.1,-0.2,-0.8
7.5,1.3,-0.2,-0.7
7.509,1.5,-0.3,-0.6
7.607,1.3,-0.3,-0.6
7.615,1.1,-0.2,-0.6
7.616,0.8,-0.1,-0.7
7.618,0.6,0.1,-0.8
7.628,0.4,0.2,-0.9
7.698,0.2,0.3,-0.9
7.7,0.2,0.3,-0.9
7.701,0.1,0.4,-0.8
7.703,0.1,0.3,-0.7
7.705,0.1,0.3,-0.7
7.802,0.1,0.2,-0.6
7.804,-0.0,0.1,-0.5
7.805,-0.2,0.1,-0.4
7.81,-0.4,0.0,-0.3
7.812,-0.6,-0.1,-0.1
7.894,-0.8,-0.2,0.1
7.896,-1.0,-0.2,0.4
7.897,-1.2,0.1,0.8
7.9,-1.3,-0.1,1.1
8.007,-1.3,-0.4,1.5
8.009,-1.3,-0.1,1.9
8.011,-1.2,0.0,2.2
8.017,-0.9,-0.1,2.4
8.027,-0.6,-0.2,2.4
8.1,-0.4,-0.2,2.4
8.102,-0.3,-0.3,2.1
8.104,-0.3,-0.3,1.8
8.105,-0.4,-0.1,1.4
8.107,-0.5,0.0,0.9
8.199,-0.7,-0.1,0.5
8.2,-1.0,-0.1,0.1
8.202,-1.3,-0.2,-0.2
8.203,-1.6,-0.2,-0.5
8.209,-1.8,-0.1,-0.7
8.27,-1.8,-0.0,-0.8
8.274,-1.6,0.0,-0.9
8.275,-1.4,0.1,-1.0
8.278,-1.2,0.2,-0.9
8.284,-0.9,0.1,-0.8
8.425,-0.4,0.0,-0.4
8.427,-0.8,-0.1,-0.2
8.429,-1.2,-0.3,-0.1
8.438,-1.3,-0.4,0.1
8.506,-1.3,-0.3,0.3
8.508,-1.2,-0.2,0.5
8.51,-0.9,-0.1,0.6
8.512,-0.1,0.0,0.8
8.515,0.6,0.1,0.8
8.517,1.0,0.1,0.8
8.52,1.1,0.1,0.7
8.597,0.8,0.0,0.6
8.598,0.4,-0.0,0.4
8.6,-0.2,0.0,0.3
8.601,-0.7,-0.2,0.1
8.698,-0.8,-0.4,-0.1
8.7,-0.7,-0.2,-0.2
8.702,-0.4,0.1,-0.3
8.703,-0.0,0.1,-0.3
8.82,0.3,-0.1,-0.3
8.821,0.7,-0.2,-0.3
8.832,0.9,-0.3,-0.3
8.844,0.9,-0.3,-0.4
8.846,0.6,-0.3,-0.6
8.895,0.4,-0.1,-0.7
8.896,0.3,0.0,-0.7
8.898,0.7,0.2,-0.7
8.899,1.0,0.4,-0.6
8.901,1.3,0.4,-0.4
8.97,1.6,0.4,-0.2
8.972,1.9,0.2,0.1
8.974,2.1,-0.1,0.3
8.982,2.2,-0.3,0.5
8.985,2.1,-0.3,0.5
9.1,1.8,-0.3,0.4
9.103,1.6,-0.3,0.1
9.104,1.4,-0.2,-0.1
9.106,1.1,0.0,-0.4
9.211,1.0,0.2,-0.6
9.213,1.0,0.2,-0.8
9.215,1.0,0.3,-0.9
9.224,1.0,0.4,-1.0
9.226,0.9,0.4,-1.0
9.228,1.0,0.4,-1.0
9.297,1.0,0.5,-1.0
9.302,0.9,0.5,-1.0
9.304,0.9,0.5,-1.0
9.305,0.8,0.6,-0.9
9.307,0.7,0.5,-0.9
9.398,0.7,0.6,-0.8
9.4,0.6,0.7,-0.7
9.401,0.5,0.8,-0.5
9.41,0.4,0.9,-0.3
9.412,0.4,0.7,-0.0
9.495,0.5,0.6,0.2
9.496,0.6,0.7,0.5
9.499,0.7,0.7,0.6
9.502,0.8,0.7,0.8
9.504,1.0,0.7,1.0
9.607,1.1,0.7,1.1
9.617,1.2,0.6,1.2
9.619,1.3,0.4,1.3
9.62,1.4,0.3,1.2
9.622,1.4,0.3,1.0
9.695,1.4,0.3,0.8
9.696,1.5,0.3,0.4
9.702,1.6,0.3,0.1
9.704,1.6,0.3,-0.2
9.706,1.4,0.2,-0.6
9.811,1.0,0.2,-0.8
9.812,0.7,0.2,-0.9
9.814,0.6,0.2,-1.0
9.816,0.4,0.2,-1.0
9.817,0.1,0.1,-1.0
9.898,-0.1,0.1,-0.9
9.899,-0.1,0.1,-0.7
9.901,0.0,0.2,-0.6
9.903,0.2,0.2,-0.4
9.908,0.4,0.3,-0.2
10.016,0.6,0.3,0.0
10.018,0.7,0.3,0.2
10.019,0.8,0.3,0.3
10.024,0.8,0.3,0.4
10.026,0.7,0.3,0.5
10.094,0.6,0.2,0.5
10.096,0.4,0.2,0.6
10.098,0.4,0.2,0.6
10.103,0.3,0.1,0.6
10.104,0.3,0.2,0.5
10.199,0.3,0.4,0.5
10.201,0.3,0.2,0.5
10.202,0.3,-0.2,0.4
10.204,0.2,-0.1,0.3
10.205,0.3,-0.1,0.1
10.308,0.3,-0.1,-0.1
10.316,0.4,-0.0,-0.2
10.319,0.5,-0.0,-0.3
10.32,0.6,-0.1,-0.3
10.33,0.7,-0.0,-0.2
10.4,0.8,0.1,-0.2
10.402,1.0,0.2,-0.1
10.403,1.3,0.3,-0.0
10.405,1.7,0.3,0.1
10.407,1.9,0.3,0.2
10.502,2.0,0.1,0.2
10.503,2.0,-0.1,0.2
10.508,1.8,-0.1,-0.0
10.51,1.4,-0.1,-0.3
10.599,1.0,-0.0,-0.6
10.6,0.6,0.2,-0.8
10.602,0.4,0.3,-1.0
10.604,0.3,0.4,-1.2
10.605,0.2,0.5,-1.2
10.707,0.2,0.6,-1.2
10.709,0.3,0.6,-1.2
10.71,0.5,0.7,-1.1
10.712,0.7,0.7,-1.1
10.721,0.9,0.6,-1.0
10.805,1.0,0.6,-1.0
10.806,1.0,0.6,-0.9
10.808,0.8,0.5,-0.8
10.81,0.6,0.5,-0.7
10.811,0.4,0.3,-0.5
10.899,0.2,0.2,-0.2
10.901,-0.0,0.5,0.2
10.902,-0.3,0.2,0.5
10.904,-0.4,-0.3,0.7
10.905,-0.4,-0.1,1.0
10.998,-0.5,-0.1,1.2
11.0,-0.6,-0.4,1.2
11.004,-0.5,-0.4,1.3
11.006,-0.4,-0.4,1.3
11.007,-0.3,-0.6,1.2
11.11,-0.3,-0.8,1.1
11.112,-0.5,-0.8,0.9
11.113,-0.9,-0.8,0.7
11.123,-1.2,-0.9,0.4
11.124,-1.5,-0.9,0.2
11.194,-1.7,-0.9,-0.0
11.199,-1.9,-0.8,-0.1
11.202,-1.9,-0.8,-0.2
11.203,-1.8,-0.6,-0.3
11.205,-1.5,-0.5,-0.2
11.296,-1.2,-0.3,-0.1
11.298,-0.8,-0.2,-0.1
11.299,-0.6,-0.1,0.0
11.301,-0.5,-0.1,0.1
11.303,-0.6,-0.1,0.2
11.394,-0.8,-0.1,0.3
11.396,-1.0,-0.1,0.4
11.397,-1.2,-0.1,0.6
11.399,-1.3,-0.1,0.8
11.401,-1.2,-0.0,1.0
11.507,-0.9,0.1,1.2
11.509,-0.6,0.2,1.4
11.519,-0.2,0.2,1.5
11.52,0.2,0.2,1.5
11.522,0.6,0.1,1.4
11.599,0.8,0.1,1.2
11.605,0.7,0.3,0.9
11.607,0.6,0.0,0.5
11.609,0.4,-0.2,0.2
11.611,0.1,-0.1,-0.3
11.7,-0.4,-0.3,-0.6
11.702,-0.7,-0.4,-1.0
11.704,-1.0,-0.2,-1.2
11.708,-1.0,-0.1,-1.3
11.71,-0.9,-0.1,-1.4
11.794,-0.7,0.1,-1.4
11.796,-0.2,0.2,-1.3
11.797,0.4,0.3,-1.1
11.799,1.2,0.3,-1.0
11.805,1.9,0.3,-0.8
11.902,2.5,0.2,-0.6
11.912,2.8,0.2,-0.5
11.914,2.8,0.2,-0.6
11.916,2.6,0.1,-0.7
11.925,2.1,0.0,-0.9
12.0,1.6,0.1,-1.1
12.002,1.1,0.2,-1.3
12.004,0.7,0.3,-1.5
12.005,0.4,0.3,-1.5
12.007,0.3,0.4,-1.5
12.097,0.2,0.4,-1.5
12.099,0.3,0.4,-1.4
12.101,0.4,0.4,-1.2
12.102,0.5,0.4,-1.1
12.194,0.5,0.3,-0.9
12.196,0.3,0.3,-0.7
12.202,0.0,0.2,-0.5
12.203,-0.2,0.0,-0.3
12.205,-0.5,0.0,-0.0
12.302,-0.8,0.4,0.4
12.334,-1.1,0.0,0.7
12.336,-1.0,-0.3,1.1
12.338,-1.0,-0.1,1.6
12.339,-1.0,0.0,2.0
12.401,-0.9,-0.1,2.3
12.403,-0.7,-0.1,2.5
12.406,-0.6,-0.3,2.6
12.407,-0.5,-0.5,2.5
12.413,-0.4,-0.5,2.4
12.499,-0.4,-0.5,2.1
12.501,-0.6,-0.5,1.8
12.503,-0.7,-0.5,1.4
12.505,-0.8,-0.6,1.0
12.506,-1.1,-0.6,0.5
12.612,-1.3,-0.6,0.1
12.613,-1.4,-0.5,-0.2
12.615,-1.6,-0.4,-0.5
12.617,-1.8,-0.3,-0.7
12.618,-1.9,-0.2,-0.8
12.694,-2.0,-0.2,-0.9
12.699,-1.9,-0.2,-0.8
12.701,-1.8,-0.2,-0.7
12.703,-1.6,-0.1,-0.6
12.704,-1.4,-0.1,-0.4
12.798,-1.2,-0.1,-0.2
12.799,-1.0,0.0,0.1
12.802,-0.8,0.1,0.3
12.804,-0.6,0.2,0.5
12.805,-0.3,0.4,0.6
12.894,-0.1,0.5,0.7
12.897,0.3,0.6,0.9
12.899,1.0,0.5,0.9
12.905,1.2,0.3,0.8
12.907,1.0,0.4,0.7
13.002,0.5,0.2,0.6
13.004,0.1,-0.4,0.4
13.005,-0.3,-0.5,0.2
13.018,-0.7,-0.5,-0.1
13.027,-0.8,-0.7,-0.4
13.1,-0.9,-0.7,-0.6
13.104,-0.9,-0.6,-0.8
13.106,-0.9,-0.5,-1.0
13.108,-0.8,-0.4,-1.1
13.109,-0.7,-0.2,-1.2
13.199,-0.4,-0.1,-1.3
13.2,-0.0,0.0,-1.2
13.202,0.5,0.1,-1.1
13.204,1.0,0.1,-1.1
13.205,1.3,-0.0,-1.0
13.302,1.4,-0.2,-1.0
13.304,1.2,-0.2,-1.1
13.305,0.9,-0.1,-1.2
13.307,0.6,-0.1,-1.4
13.309,0.2,0.0,-1.5
13.411,-0.1,0.1,-1.5
13.414,-0.3,0.1,-1.5
13.416,-0.4,0.2,-1.4
13.425,-0.4,0.2,-1.2
13.427,-0.2,0.2,-1.0
13.497,-0.1,0.2,-0.7
13.499,0.0,0.1,-0.4
13.5,0.0,0.1,-0.2
13.502,-0.0,0.0,0.1
13.503,-0.1,-0.0,0.4
13.6,-0.4,-0.1,0.7
13.602,-0.7,-0.2,1.0
13.603,-0.9,-0.2,1.3
13.608,-1.1,-0.3,1.7
13.61,-1.2,-0.2,2.1
13.693,-1.4,0.1,2.5
13.695,-1.5,-0.2,2.7
13.696,-1.3,-0.8,2.8
13.7,-1.2,-0.6,2.9
13.806,-1.1,-0.4,2.8
13.808,-0.9,-0.4,2.5
13.814,-0.7,-0.3,2.2
13.827,-0.7,-0.4,1.8
13.829,-1.1,-0.6,1.3
13.898,-1.6,-0.8,0.8
13.9,-2.3,-0.7,0.4
13.905,-2.9,-0.7,-0.1
13.906,-3.3,-0.7,-0.5
13.908,-3.4,-0.8,-0.9
13.997,-3.4,-0.7,-1.2
13.999,-3.3,-0.8,-1.4
14.0,-3.2,-0.8,-1.6
14.006,-3.0,-0.7,-1.7
14.008,-2.7,-0.6,-1.7
14.119,-2.3,-0.4,-1.6
14.12,-2.0,-0.4,-1.5
14.123,-1.7,-0.3,-1.3
14.132,-1.5,-0.3,-1.0
14.134,-1.4,-0.3,-0.7
14.205,-1.3,-0.3,-0.3
14.206,-1.4,-0.3,0.1
14.227,-1.3,-0.3,0.5
14.229,-1.2,-0.2,0.9
14.23,-1.0,-0.2,1.4
14.232,-0.8,-0.1,1.6
14.297,-0.7,-0.0,1.9
14.298,-0.5,-0.1,2.1
14.3,-0.5,-0.1,2.3
14.305,-0.4,-0.2,2.3
14.398,-0.2,-0.2,2.2
14.4,0.2,-0.1,2.1
14.402,0.6,-0.2,1.7
14.404,0.8,-0.4,1.3
14.407,0.7,-0.3,0.8
14.5,0.4,-0.2,0.3
14.502,-0.1,-0.1,-0.2
14.504,-0.7,-0.2,-0.6
14.505,-1.2,-0.3,-1.0
14.511,-1.6,-0.4,-1.2
14.61,-1.7,-0.5,-1.4
14.62,-1.7,-0.5,-1.6
14.621,-1.4,-0.3,-1.7
14.623,-0.8,-0.1,-1.7
14.625,-0.1,0.0,-1.6
14.7,0.6,0.1,-1.5
14.702,1.3,0.1,-1.4
14.704,1.7,0.1,-1.3
14.705,1.8,0.1,-1.2
14.707,1.7,0.0,-1.2
14.798,1.4,0.1,-1.3
14.8,1.0,0.1,-1.5
14.804,0.6,0.2,-1.6
14.806,0.2,0.2,-1.8
14.808,0.0,0.3,-1.8
14.893,0.0,0.4,-1.8
14.895,0.1,0.4,-1.6
14.897,0.4,0.5,-1.5
14.9,0.7,0.6,-1.2
14.902,0.9,0.6,-1.0
15.002,1.0,0.7,-0.7
15.003,1.0,0.8,-0.4
15.012,1.0,0.7,-0.1
15.013,0.8,0.6,0.2
15.015,0.6,0.6,0.5
15.098,0.2,0.4,0.8
15.1,-0.2,0.3,1.2
15.106,-0.5,0.3,1.5
15.109,-0.9,0.4,2.0
15.111,-1.3,-0.0,2.3
15.193,-1.5,-0.4,2.6
15.203,-1.8,-0.3,2.9
15.205,-2.1,-0.5,2.9
15.207,-2.2,-0.7,2.8
15.209,-2.2,-0.8,2.6
15.306,-2.4,-1.1,2.2
15.308,-2.7,-1.3,1.7
15.31,-3.0,-1.2,1.1
15.315,-3.0,-1.0,0.5
15.325,-3.1,-0.9,-0.1
15.394,-3.5,-0.9,-0.6
15.396,-3.8,-1.0,-0.9
15.398,-4.0,-1.0,-1.2
15.404,-3.9,-1.0,-1.3
15.474,-3.5,-1.0,-1.3
15.476,-3.0,-1.0,-1.2
15.477,-2.4,-0.9,-1.0
15.479,-1.8,-0.8,-0.8
15.481,-1.3,-0.7,-0.6
15.596,-1.0,-0.6,-0.3
15.598,-0.9,-0.5,-0.1
15.6,-0.9,-0.4,0.1
15.601,-1.0,-0.4,0.4
15.704,-1.2,-0.2,0.7
15.713,-1.1,-0.1,1.1
15.731,-0.9,0.1,1.3
15.733,-0.6,0.2,1.5
15.735,-0.2,0.3,1.7
15.752,-0.0,0.4,1.8
15.818,0.2,0.4,1.8
15.82,0.3,0.4,1.8
15.821,0.3,0.3,1.7
15.826,0.3,0.2,1.4
15.828,0.2,0.2,1.2
15.898,0.1,0.4,0.9
15.9,-0.0,0.2,0.6
15.904,-0.2,-0.0,0.3
15.906,-0.4,0.2,-0.0
15.916,-0.6,0.1,-0.3
15.999,-0.7,-0.1,-0.6
16.0,-0.8,-0.1,-0.9
16.002,-0.8,-0.0,-1.2
16.003,-0.7,0.0,-1.4
16.005,-0.4,0.0,-1.4
16.102,0.3,0.0,-1.3
16.104,0.6,-0.0,-1.3
16.107,0.3,-0.1,-1.6
16.125,0.4,-0.2,-1.5
16.126,1.0,-0.2,-1.4
16.171,1.1,-0.2,-1.4
16.172,0.9,-0.4,-1.5
16.174,0.7,-0.4,-1.5
16.176,0.3,-0.4,-1.6
16.177,-0.0,-0.3,-1.5
16.294,-0.2,-0.3,-1.5
16.296,-0.3,-0.2,-1.4
16.297,-0.4,-0.1,-1.2
16.299,-0.4,-0.0,-1.1
16.403,-0.2,0.1,-0.9
16.405,0.2,0.3,-0.6
16.407,0.5,0.4,-0.4
16.409,0.7,0.5,-0.3
16.41,0.8,0.5,-0.1
16.412,0.9,0.6,0.1
16.504,0.8,0.5,0.2
16.506,0.7,0.4,0.4
16.515,0.3,0.4,0.5
16.525,-0.1,0.3,0.7
16.527,-0.6,0.2,1.0
16.594,-0.9,0.0,1.2
16.596,-1.1,-0.1,1.4
16.598,-1.3,-0.1,1.6
16.599,-1.4,-0.0,1.9
16.601,-1.2,-0.5,1.9
16.698,-1.0,-0.7,2.0
16.699,-1.0,-0.5,1.9
16.701,-1.0,-0.6,1.7
16.703,-0.9,-0.8,1.4
16.705,-1.0,-0.8,1.1
16.799,-1.1,-0.9,0.7
16.801,-1.4,-0.9,0.2
16.804,-2.1,-1.0,-0.3
16.806,-2.8,-1.1,-0.7
16.813,-3.5,-1.3,-1.0
16.907,-4.1,-1.4,-1.2
16.917,-4.4,-1.4,-1.3
16.918,-4.4,-1.3,-1.3
16.93,-4.0,-1.2,-1.1
16.932,-3.5,-1.0,-0.8
16.996,-2.8,-0.8,-0.5
16.999,-1.9,-0.7,-0.2
17.002,-1.2,-0.6,0.1
17.008,-0.7,-0.4,0.4
17.1,-0.6,-0.3,0.6
17.101,-0.6,-0.3,0.9
17.103,-0.7,-0.2,1.2
17.105,-0.9,-0.2,1.4
17.106,-1.0,-0.1,1.7
17.193,-0.9,-0.1,1.8
17.194,-0.6,0.0,1.9
17.196,-0.3,0.2,2.0
17.198,0.1,0.3,2.0
17.199,0.4,0.3,1.8
17.31,0.7,0.3,1.6
17.323,0.9,0.5,1.2
17.325,1.0,0.4,0.8
17.328,1.0,0.1,0.4
17.329,0.6,-0.1,-0.1
17.402,-0.0,-0.0,-0.6
17.404,-0.6,-0.0,-1.0
17.405,-1.1,-0.1,-1.3
17.408,-1.2,-0.2,-1.4
17.409,-1.0,-0.4,-1.3
17.493,-0.8,-0.5,-1.4
17.5,-0.7,-0.5,-1.6
17.501,-0.5,-0.3,-1.7
17.503,0.1,-0.2,-1.6
17.505,0.8,-0.1,-1.4
17.601,1.2,-0.1,-1.3
17.602,1.4,-0.2,-1.1
17.61,1.5,-0.2,-0.9
17.612,1.4,-0.2,-0.7
17.613,1.2,-0.1,-0.5
17.693,1.0,-0.0,-0.3
17.695,0.8,0.1,-0.3
17.696,0.7,0.1,-0.2
17.698,0.6,0.2,-0.2
17.7,0.7,0.3,-0.1
17.795,0.8,0.4,-0.1
17.797,1.0,0.5,-0.2
17.802,1.2,0.5,-0.2
17.804,1.3,0.6,-0.3
17.811,1.4,0.7,-0.4
17.89,1.3,0.7,-0.5
17.892,1.2,0.7,-0.6
17.894,1.0,0.7,-0.7
17.895,0.6,0.6,-0.7
17.897,0.1,0.6,-0.8
18.001,-0.9,0.4,-0.7
18.003,-2.3,0.2,-0.7
18.01,-3.6,-0.1,-0.5
18.012,-4.4,-0.4,-0.4
18.024,-4.9,-0.5,-0.2
18.093,-4.8,-0.9,-0.1
18.094,-3.9,-1.0,0.3
18.096,-2.5,-0.7,0.7
18.098,-1.2,-0.6,1.2
18.099,0.2,-0.7,1.5
18.202,1.2,-0.8,1.7
18.204,1.8,-0.9,1.9
18.205,1.9,-1.0,1.9
18.207,1.8,-1.1,1.9
18.212,1.7,-1.1,1.6
18.297,1.3,-1.0,1.3
18.299,0.8,-0.9,0.8
18.302,0.4,-0.7,0.3
18.304,-0.1,-0.4,-0.1
18.307,-0.5,-0.3,-0.4
18.415,-0.9,-0.2,-0.6
18.417,-1.2,-0.1,-0.7
18.419,-1.4,0.0,-0.7
18.435,-1.5,0.1,-0.7
18.437,-1.5,0.1,-0.7
18.492,-1.3,0.1,-0.7
18.494,-1.0,0.1,-0.7
18.496,-0.9,0.1,-0.6
18.503,-0.7,0.1,-0.5
18.505,-0.7,0.1,-0.3
18.592,-0.8,0.2,-0.1
18.594,-0.8,0.2,0.2
18.595,-0.7,0.2,0.4
18.597,-0.5,0.4,0.7
18.603,0.0,0.5,1.0
18.691,0.6,0.5,1.2
18.693,0.8,0.6,1.2
18.698,-0.2,0.3,1.1
18.7,-0.9,-0.1,1.0
18.8,-0.3,-0.2,0.8
18.802,0.7,-0.2,0.7
18.804,1.4,-0.5,0.4
18.813,1.8,-0.7,0.3
18.815,1.6,-0.6,0.1
18.892,1.0,-0.6,-0.2
18.894,0.4,-0.5,-0.4
18.899,-0.2,-0.4,-0.6
18.901,-0.7,-0.4,-0.7
18.902,-0.9,-0.3,-0.8
18.996,-1.0,-0.3,-0.8
18.998,-0.7,-0.2,-0.7
19.002,-0.2,-0.0,-0.6
19.004,0.6,0.2,-0.5
19.006,1.4,0.2,-0.4
19.097,2.2,0.3,-0.3
19.098,2.8,0.3,-0.1
19.102,3.2,0.3,-0.0
19.104,3.4,0.3,-0.0
19.109,3.3,0.3,-0.1
19.206,3.0,0.4,-0.3
19.208,2.7,0.5,-0.5
19.218,2.3,0.5,-0.7
19.219,1.9,0.6,-0.9
19.232,1.5,0.7,-1.1
19.298,1.2,0.7,-1.1
19.3,1.0,0.7,-1.2
19.301,0.8,0.7,-1.2
19.306,0.7,0.6,-1.2
19.308,0.6,0.6,-1.1
19.392,0.5,0.5,-1.1
19.394,0.4,0.4,-1.1
19.395,0.3,0.4,-1.0
19.397,0.2,0.4,-1.0
19.399,0.0,0.4,-0.9
19.489,-0.1,0.4,-0.8
19.491,-0.1,0.4,-0.6
19.493,-0.0,0.4,-0.3
19.494,0.0,0.6,0.0
19.5,-0.0,0.4,0.3
19.607,-0.0,0.1,0.6
19.62,-0.1,0.1,0.9
19.622,-0.2,0.3,1.1
19.623,-0.2,0.2,1.3
19.625,-0.2,-0.0,1.4
19.692,-0.0,-0.2,1.4
19.693,-0.0,-0.3,1.5
19.695,-0.0,-0.5,1.4
19.701,-0.1,-0.6,1.2
19.703,-0.4,-0.6,1.0
19.8,-0.7,-0.6,0.7
19.802,-0.9,-0.7,0.4
19.828,-1.3,-0.8,-0.1
19.829,-1.8,-0.7,-0.4
19.831,-2.2,-0.6,-0.7
19.893,-2.5,-0.6,-0.8
19.895,-2.7,-0.5,-0.8
19.902,-2.6,-0.6,-0.7
19.904,-2.3,-0.5,-0.7
19.907,-1.8,-0.5,-0.6
20.011,-1.4,-0.5,-0.4
20.012,-1.1,-0.5,-0.3
20.014,-1.1,-0.5,-0.1
20.016,-1.2,-0.5,0.1
20.017,-1.2,-0.5,0.4
20.103,-1.3,-0.4,0.6
20.105,-1.4,-0.4,0.9
20.106,-1.2,-0.3,1.2
20.108,-0.9,-0.1,1.4
20.109,-0.6,0.0,1.6
20.199,-0.1,0.1,1.8
20.201,0.3,0.1,1.9
20.202,0.5,0.1,1.8
20.204,0.6,0.1,1.7
20.205,0.6,0.1,1.5
20.303,0.5,-0.2,1.2
20.304,0.3,-0.3,0.8
20.306,-0.1,-0.2,0.3
20.316,-0.4,-0.1,-0.2
20.398,-0.7,-0.2,-0.4
20.4,-1.1,-0.2,-0.7
20.407,-1.4,-0.2,-0.9
20.409,-1.2,-0.0,-1.0
20.411,-1.0,0.0,-0.9
20.501,-0.7,0.1,-0.9
20.503,-0.1,0.2,-0.8
20.506,0.8,0.3,-0.7
20.507,1.7,0.4,-0.5
20.509,2.6,0.4,-0.4
20.596,3.2,0.4,-0.3
20.598,3.6,0.3,-0.2
20.601,3.8,0.1,-0.3
20.603,3.6,0.0,-0.5
20.604,3.2,0.0,-0.8
20.704,2.5,0.1,-1.1
20.705,1.8,0.1,-1.4
20.707,1.0,0.0,-1.7
20.713,0.5,0.1,-1.9
20.726,0.1,0.2,-1.9
20.791,-0.0,0.2,-2.0
20.813,0.0,0.3,-1.9
20.82,0.2,0.4,-1.8
20.822,0.5,0.5,-1.7
20.824,0.8,0.6,-1.5
20.895,1.0,0.6,-1.3
20.896,1.1,0.6,-1.1
20.898,1.1,0.6,-0.9
20.9,0.9,0.6,-0.7
20.901,0.7,0.5,-0.4
20.977,0.4,0.5,-0.1
20.978,0.2,0.4,0.3
20.98,-0.0,0.4,0.7
20.982,-0.2,0.6,1.2
20.983,-0.4,0.4,1.6
21.094,-0.4,0.1,1.9
21.104,-0.7,-0.1,2.1
21.106,-1.4,-0.1,2.3
21.119,-2.0,-0.4,2.3
21.198,-2.2,-0.5,2.2
21.2,-2.0,-0.6,2.1
21.202,-1.8,-0.8,1.9
21.203,-1.4,-0.8,1.6
21.205,-1.0,-0.7,1.2
21.206,-0.8,-0.6,0.7
21.291,-0.9,-0.6,0.3
21.293,-1.0,-0.5,-0.1
21.295,-1.3,-0.6,-0.4
21.296,-1.6,-0.5,-0.6
21.298,-1.8,-0.4,-0.8
21.391,-1.9,-0.3,-0.8
21.393,-1.9,-0.2,-0.8
21.394,-1.7,-0.2,-0.8
21.396,-1.6,-0.1,-0.7
21.398,-1.5,-0.1,-0.6
21.503,-1.4,-0.1,-0.4
21.505,-1.3,-0.1,-0.2
21.521,-1.3,-0.1,0.1
21.522,-1.3,-0.1,0.3
21.526,-1.3,-0.0,0.6
21.595,-1.0,0.1,0.9
21.596,-0.6,0.3,1.2
21.604,0.1,0.5,1.5
21.606,0.9,0.6,1.7
21.608,0.9,0.4,1.7
21.691,-0.3,0.2,1.6
21.693,-0.8,-0.2,1.4
21.695,-0.2,-0.1,1.0
21.696,0.9,-0.1,0.6
21.703,2.1,-0.1,0.0
21.813,2.9,0.0,-0.4
21.815,3.4,-0.1,-0.7
21.817,3.3,-0.1,-1.0
21.82,2.3,-0.1,-1.4
21.822,0.6,-0.3,-1.7
21.91,-0.9,-0.5,-2.0
21.922,-1.8,-0.5,-2.0
21.924,-2.2,-0.3,-1.9
21.926,-2.2,-0.1,-1.6
21.927,-2.0,0.0,-1.4
21.993,-1.4,0.2,-1.2
21.995,-0.5,0.3,-0.9
22.001,0.4,0.3,-0.5
22.003,1.1,0.1,-0.2
22.095,1.4,-0.2,0.1
22.096,1.5,-0.3,0.5
22.101,1.4,-0.3,0.6
22.103,1.2,-0.2,0.7
22.105,1.0,-0.1,0.7
22.192,1.0,0.1,0.6
22.197,0.9,0.3,0.6
22.199,0.8,0.4,0.5
22.201,0.7,0.4,0.4
22.202,0.6,0.4,0.3
22.304,0.5,0.4,0.3
22.321,0.5,0.3,0.3
22.331,0.4,0.2,0.2
22.332,0.2,0.1,0.2
22.334,0.0,0.1,0.1
22.398,-0.2,0.0,0.1
22.4,-0.4,-0.1,0.1
22.401,-0.6,-0.3,0.1
22.403,-0.6,-0.3,0.2
22.404,-0.6,-0.2,0.4
22.496,-0.5,0.0,0.6
22.498,-0.4,-0.2,0.7
22.499,-0.2,-0.4,0.9
22.501,-0.1,-0.2,0.9
22.502,-0.2,-0.1,0.8
22.606,-0.2,-0.3,0.6
22.608,-0.5,-0.4,0.5
22.61,-0.8,-0.5,0.3
22.617,-1.1,-0.6,0.1
22.619,-1.2,-0.5,-0.2
22.691,-1.1,-0.3,-0.5
22.704,-0.9,-0.1,-0.7
22.706,-0.7,0.0,-0.9
22.708,-0.5,0.1,-1.1
22.71,-0.4,0.1,-1.3
22.8,-0.3,0.1,-1.3
22.802,-0.3,0.1,-1.3
22.803,-0.2,0.1,-1.2
22.808,-0.2,0.1,-1.1
22.81,-0.1,0.1,-0.9
22.891,0.1,0.1,-0.6
22.893,0.2,0.1,-0.4
22.894,0.2,0.0,-0.1
22.896,0.1,0.0,0.1
22.898,0.0,-0.1,0.4
23.011,0.0,-0.1,0.6
23.013,0.0,-0.2,0.9
23.015,0.1,-0.2,1.2
23.017,0.2,-0.2,1.4
23.029,0.2,-0.1,1.6
23.095,0.2,-0.1,1.6
23.097,0.3,-0.2,1.6
23.098,0.3,-0.3,1.5
23.1,0.2,-0.3,1.2
23.101,-0.0,0.0,1.0
23.192,-0.1,-0.0,0.7
23.193,-0.2,-0.4,0.3
23.195,-0.4,-0.2,0.0
23.197,-0.6,0.2,-0.3
23.198,-0.8,0.2,-0.5
23.291,-0.8,0.1,-0.6
23.293,-0.8,0.1,-0.7
23.298,-0.7,0.1,-0.8
23.3,-0.7,0.2,-0.9
23.302,-0.8,0.2,-0.9
23.407,-0.6,0.2,-0.9
23.409,-0.1,0.2,-0.8
23.411,0.5,0.2,-0.7
23.425,1.0,0.0,-0.5
23.427,1.3,-0.3,-0.4
23.495,1.4,-0.4,-0.3
23.496,1.4,-0.5,-0.3
23.498,1.2,-0.5,-0.4
23.5,0.9,-0.5,-0.5
23.501,0.5,-0.5,-0.6
23.595,0.2,-0.5,-0.7
23.597,-0.2,-0.5,-0.7
23.598,-0.4,-0.5,-0.8
23.6,-0.7,-0.5,-0.8
23.696,-1.1,-0.5,-0.8
23.698,-1.5,-0.4,-0.8
23.7,-1.6,-0.3,-0.6
23.701,-1.4,-0.2,-0.3
23.703,-1.1,-0.1,-0.1
23.808,-0.8,-0.0,0.2
23.811,-0.3,0.1,0.5
23.814,0.2,0.2,0.7
23.825,0.5,0.3,1.0
23.833,0.7,0.4,1.1
23.895,0.9,0.6,1.3
23.897,0.9,0.7,1.5
23.902,1.1,0.4,1.6
23.904,1.2,0.4,1.6
23.905,1.0,0.3,1.5
23.995,0.7,0.1,1.3
23.997,0.4,0.1,1.1
23.999,0.2,0.2,0.8
24.0,0.2,0.3,0.4
24.002,0.2,0.3,-0.0
24.091,0.2,0.3,-0.4
24.092,0.2,0.3,-0.7
24.094,0.2,-0.0,-0.9
24.095,0.2,-0.3,-1.0
24.097,0.1,-0.2,-1.0
24.21,-0.1,-0.0,-1.0
24.211,-0.2,0.1,-1.1
24.222,-0.3,0.1,-1.1
24.224,-0.4,-0.1,-1.2
24.226,-0.6,-0.2,-1.2
24.293,-0.7,-0.2,-1.2
24.295,-0.8,-0.1,-1.1
24.304,-0.8,0.0,-0.9
24.306,-0.7,0.1,-0.7
24.307,-0.7,0.2,-0.5
24.396,-0.6,0.2,-0.2
24.398,-0.5,0.3,-0.0
24.4,-0.3,0.3,0.2
24.401,-0.2,0.3,0.4
24.403,-0.2,0.2,0.6
24.493,-0.3,0.1,0.7
24.495,-0.4,0.1,0.9
24.496,-0.6,0.0,1.0
24.498,-0.8,-0.1,1.0
24.5,-0.8,0.0,1.0
24.612,-0.8,-0.1,1.0
24.623,-0.8,-0.7,0.9
24.624,-1.1,-0.9,0.7
24.626,-1.5,-0.8,0.5
24.628,-1.8,-0.8,0.3
24.695,-2.0,-0.8,0.2
24.696,-2.1,-0.9,0.1
24.698,-2.0,-1.0,0.1
24.7,-1.9,-0.9,0.2
24.705,-1.6,-0.9,0.2
24.795,-1.1,-1.0,0.2
24.797,-0.8,-1.0,0.2
24.798,-0.6,-1.0,0.1
24.802,-0.7,-1.1,-0.0
24.804,-0.9,-1.1,-0.2
24.891,-1.1,-1.0,-0.3
24.897,-1.4,-0.8,-0.4
24.898,-1.6,-0.6,-0.5
24.9,-1.7,-0.4,-0.6
24.902,-1.7,-0.2,-0.5
25.003,-1.5,-0.0,-0.5
25.005,-1.2,0.1,-0.3
25.006,-0.8,0.1,-0.2
25.009,-0.4,0.1,-0.0
25.012,-0.1,0.1,0.2
25.094,0.1,0.1,0.3
25.096,0.1,0.0,0.5
25.098,0.0,-0.1,0.6
25.099,-0.1,-0.2,0.6
25.104,-0.2,-0.3,0.6
25.19,-0.4,-0.4,0.6
25.192,-0.7,-0.4,0.5
25.194,-1.0,-0.5,0.5
25.195,-1.4,-0.3,0.5
25.197,-1.7,-0.1,0.5
25.317,-1.8,-0.7,0.5
25.319,-1.7,-0.8,0.6
25.32,-1.6,-0.2,0.6
25.322,-1.5,-0.3,0.6
25.398,-1.2,-0.5,0.6
25.399,-0.9,-0.2,0.7
25.401,-0.6,-0.1,0.6
25.404,-0.3,-0.2,0.4
25.405,-0.2,-0.0,0.2
25.49,-0.2,0.1,-0.0
25.496,-0.2,0.1,-0.2
25.498,-0.3,-0.1,-0.4
25.5,-0.5,-0.2,-0.6
25.502,-0.6,-0.1,-0.8
25.592,-0.7,-0.1,-0.9
25.593,-0.7,-0.0,-1.0
25.595,-0.6,-0.0,-1.0
25.597,-0.5,-0.0,-1.0
25.598,-0.5,-0.1,-0.9
25.706,-0.4,-0.1,-0.7
25.709,-0.4,-0.1,-0.5
25.711,-0.4,-0.1,-0.2
25.713,-0.3,-0.2,0.1
25.725,-0.1,-0.1,0.3
25.791,0.2,-0.0,0.6
25.796,0.4,0.0,0.8
25.797,0.3,0.0,1.1
25.799,0.2,-0.1,1.2
25.801,-0.0,-0.2,1.3
25.891,-0.2,-0.2,1.4
25.892,-0.4,-0.2,1.4
25.894,-0.5,-0.3,1.4
25.896,-0.6,-0.3,1.3
25.897,-0.6,-0.3,1.2
25.99,-0.5,0.0,1.0
25.992,-0.3,0.3,0.9
25.994,-0.2,-0.1,0.7
25.995,-0.2,-0.2,0.4
25.997,-0.3,0.1,0.1
26.106,-0.3,0.2,-0.2
26.108,-0.2,0.0,-0.5
26.11,-0.2,0.1,-0.8
26.121,-0.2,0.0,-1.1
26.123,-0.2,-0.1,-1.3
26.197,-0.2,-0.0,-1.6
26.199,-0.2,0.1,-1.7
26.203,-0.0,0.1,-1.8
26.205,0.2,0.2,-1.8
26.207,0.6,0.2,-1.7
26.294,0.9,0.2,-1.5
26.296,1.1,0.2,-1.3
26.298,1.2,0.2,-1.2
26.3,1.2,0.1,-1.0
26.304,1.0,0.1,-0.9
26.392,0.7,0.2,-0.9
26.394,0.6,0.3,-0.9
26.396,0.5,0.4,-0.8
26.398,0.4,0.3,-0.7
26.4,0.4,0.3,-0.5
26.508,0.4,0.3,-0.3
26.515,0.4,0.2,-0.2
26.526,0.3,0.1,-0.0
26.528,0.2,0.1,0.1
26.529,0.0,0.1,0.3
26.591,-0.1,-0.0,0.4
26.592,-0.3,-0.1,0.6
26.594,-0.5,-0.2,0.7
26.602,-0.6,-0.3,0.9
26.604,-0.9,-0.3,1.0
26.69,-1.1,0.1,1.3
26.692,-1.3,-0.1,1.5
26.693,-1.2,-0.6,1.6
26.699,-0.9,-0.4,1.8
26.701,-0.8,0.1,1.9
26.769,-0.5,0.2,1.9
26.771,-0.2,-0.0,1.9
26.773,0.1,-0.2,1.8
26.775,0.3,-0.4,1.6
26.776,0.3,-0.6,1.2
26.907,-0.1,-0.5,0.7
26.922,-0.4,-0.3,0.3
26.924,-0.7,-0.2,-0.2
26.997,-0.8,-0.2,-0.6
26.999,-1.0,-0.2,-1.0
27.001,-1.2,-0.3,-1.3
27.003,-1.4,-0.4,-1.5
27.004,-1.6,-0.4,-1.7
27.006,-1.6,-0.3,-1.8
27.09,-1.5,-0.3,-1.8
27.092,-1.4,-0.2,-1.7
27.094,-1.2,-0.2,-1.6
27.095,-1.0,-0.2,-1.5
27.097,-0.8,-0.2,-1.2
27.194,-0.7,-0.2,-0.9
27.196,-0.6,-0.2,-0.6
27.197,-0.4,-0.2,-0.3
27.199,-0.3,-0.2,0.1
27.201,-0.2,-0.2,0.5
27.316,-0.2,-0.2,0.9
27.328,-0.2,-0.1,1.3
27.329,-0.3,-0.0,1.6
27.338,-0.6,-0.0,1.8
27.339,-0.8,-0.1,2.0
27.394,-0.9,-0.2,2.0
27.399,-1.0,-0.3,2.0
27.401,-0.9,-0.4,1.9
27.402,-0.8,-0.1,1.8
27.404,-0.5,-0.2,1.6
27.49,-0.2,-0.4,1.4
27.492,-0.1,-0.3,1.1
27.493,-0.0,0.0,0.7
27.499,0.1,0.1,0.3
27.501,0.1,0.2,-0.1
27.607,0.1,0.1,-0.4
27.609,-0.0,0.1,-0.8
27.611,-0.1,0.1,-1.0
27.614,-0.2,0.1,-1.2
27.617,-0.2,0.2,-1.4
27.694,-0.1,0.2,-1.5
27.695,0.1,0.1,-1.5
27.697,0.2,-0.1,-1.6
27.699,0.2,-0.3,-1.7
27.7,0.2,-0.4,-1.7
27.793,0.1,-0.3,-1.8
27.794,-0.1,-0.3,-1.9
27.796,-0.2,-0.2,-1.9
27.797,-0.3,-0.1,-1.9
27.799,-0.4,-0.0,-1.8
27.89,-0.5,-0.0,-1.6
27.892,-0.5,0.0,-1.4
27.893,-0.5,-0.1,-1.1
27.895,-0.5,-0.2,-0.8
27.896,-0.5,-0.2,-0.4
28.005,-0.8,-0.3,-0.1
28.008,-0.9,-0.4,0.2
28.01,-0.9,-0.4,0.5
28.012,-0.8,-0.5,0.8
28.032,-0.7,-0.5,1.1
28.093,-0.7,-0.5,1.4
28.095,-0.6,-0.6,1.6
28.097,-0.7,-0.6,1.7
28.099,-0.8,-0.5,1.8
28.101,-0.9,-0.2,1.9
28.199,-1.0,-0.2,1.9
28.2,-0.9,-0.8,1.7
28.202,-0.9,-0.6,1.7
28.207,-1.0,-0.2,1.5
28.208,-1.0,-0.5,1.3
28.295,-1.0,-0.6,1.0
28.296,-1.0,-0.5,0.8
28.298,-1.0,-0.6,0.5
28.299,-1.1,-0.7,0.2
28.301,-1.4,-0.7,-0.2
28.408,-1.8,-0.8,-0.5
28.41,-2.1,-0.9,-0.8
28.413,-2.4,-0.9,-1.0
28.424,-2.5,-0.9,-1.1
28.425,-2.5,-1.0,-1.2
28.494,-2.3,-1.0,-1.2
28.495,-1.9,-1.0,-1.1
28.497,-1.5,-0.9,-1.0
28.498,-1.0,-0.7,-1.0
28.5,-0.7,-0.6,-0.9
28.597,-0.4,-0.5,-0.9
28.599,-0.3,-0.4,-0.8
28.601,-0.3,-0.3,-0.7
28.603,-0.5,-0.4,-0.6
28.69,-0.7,-0.3,-0.5
28.692,-1.0,-0.3,-0.3
28.694,-1.3,-0.4,-0.2
28.695,-1.4,-0.5,-0.2
28.697,-1.4,-0.5,-0.3
28.802,-1.2,-0.5,-0.3
28.804,-0.6,-0.5,-0.4
28.806,0.2,-0.4,-0.6
28.818,0.5,-0.2,-0.8
28.819,0.7,-0.1,-1.0
28.9,1.2,-0.1,-1.3
28.901,1.7,-0.0,-1.6
28.903,1.6,-0.1,-2.1
28.904,0.0,-0.6,-2.9
28.906,-2.4,-1.2,-3.7
28.99,-3.7,-1.4,-4.5
28.991,-3.5,-1.1,-5.4
28.993,-1.9,-0.5,-5.9
28.995,-0.3,-0.1,-6.1
28.996,1.2,-0.0,-6.0
29.09,2.0,0.0,-5.8
29.095,2.5,-0.1,-5.3
29.097,2.9,-0.1,-4.9
29.099,3.3,0.1,-4.4
29.1,5.2,0.2,-3.8
29.21,7.1,0.4,-3.3
29.213,9.4,0.7,-2.8
29.224,12.5,1.0,-2.4
29.226,15.1,1.0,-2.1
29.232,14.4,1.0,-2.2
29.332,10.5,0.9,-2.4
29.334,4.6,0.9,-2.3
29.336,1.0,0.8,-1.8
29.337,0.2,1.0,-1.6
29.339,0.7,1.4,-1.7
29.397,1.3,1.7,-1.4
29.399,1.4,1.8,-1.2
29.401,0.9,1.6,-1.3
29.403,0.5,1.3,-1.1
29.404,0.1,1.1,-0.9
29.491,0.3,0.8,-0.8
29.492,0.3,0.7,-0.7
29.494,0.2,0.5,-0.6
29.496,-0.0,0.3,-0.5
29.497,-0.2,0.2,-0.4
29.602,-0.0,0.2,-0.3
29.615,0.0,0.1,-0.2
29.625,-0.0,0.1,-0.2
29.626,-0.1,0.0,-0.1
29.628,-0.2,-0.0,-0.1
29.672,-0.2,-0.0,-0.1
29.673,-0.1,-0.0,-0.1
29.675,-0.2,0.0,-0.1
29.676,-0.3,0.1,-0.1
29.678,-0.2,0.1,-0.0
29.791,-0.1,0.1,-0.0
29.793,-0.1,0.1,-0.1
29.794,-0.1,0.2,-0.1
29.802,-0.1,0.2,-0.1
29.88,-0.1,0.1,-0.1
29.882,-0.2,0.1,-0.1
29.884,-0.2,0.1,-0.1
29.885,-0.2,0.1,-0.1
29.887,-0.2,0.1,-0.0
29.888,-0.4,0.2,-0.0
30.002,-0.4,0.2,0.0
30.003,-0.1,0.3,0.0
30.005,0.1,0.3,-0.0
30.098,-0.0,0.3,0.0
30.1,-0.2,0.2,0.0
30.106,-0.1,0.1,0.1
30.107,0.1,0.1,0.0
30.109,0.1,0.1,0.0
30.111,-0.0,0.0,0.0
