vertical_Accel_x,vertical_Accel_y,vertical_Accel_z,accel_time_list
4.448,-9.504,-8.783,0.0
3.261,-8.078,-6.187,0.007
2.039,-4.322,-6.313,0.008
3.965,-6.743,-5.442,0.01
2.887,-6.426,-6.796,0.081
2.896,-5.809,-6.965,0.083
3.352,-5.896,-7.317,0.084
3.257,-6.087,-7.252,0.086
3.078,-5.343,-7.326,0.091
3.702,-6.585,-5.837,0.093
3.624,-7.131,-5.674,0.2
3.515,-7.397,-5.758,0.201
3.46,-7.28,-5.7,0.203
3.515,-7.397,-5.758,0.204
3.648,-7.461,-5.847,0.302
3.612,-7.219,-5.853,0.303
3.673,-7.292,-5.821,0.305
3.655,-7.417,-5.758,0.307
3.587,-7.388,-5.879,0.308
3.533,-7.272,-5.821,0.32
3.594,-7.344,-5.789,0.401
3.454,-7.324,-5.789,0.402
3.265,-7.143,-5.642,0.408
3.333,-7.172,-5.521,0.409
3.498,-7.515,-5.363,0.411
3.633,-7.572,-5.121,0.5
3.816,-7.289,-4.826,0.502
3.78,-7.04,-4.5,0.504
3.287,-6.488,-4.179,0.505
3.294,-6.444,-4.089,0.507
3.248,-6.004,-5.183,0.6
3.052,-6.096,-4.817,0.602
2.361,-5.178,-5.287,0.603
2.317,-4.665,-5.839,0.605
2.75,-5.806,-6.314,0.7
4.671,-7.296,-5.477,0.702
5.928,-7.691,-4.094,0.704
3.978,-5.497,-2.608,0.711
1.21,-3.039,-2.117,0.721
-0.585,-1.649,-3.3,0.804
-1.526,-2.043,-3.9,0.805
-2.337,-1.434,-4.697,0.807
-4.444,-0.253,-4.61,0.809
-6.449,0.418,-5.033,0.81
-6.714,4.561,-6.45,0.9
-7.658,7.69,-6.048,0.902
-6.873,13.563,-2.324,0.904
-5.28,15.51,0.373,0.905
-3.388,13.106,-0.896,0.907
0.062,10.96,4.305,1.001
2.67,12.158,8.53,1.002
4.932,12.692,8.601,1.004
6.616,9.789,6.426,1.006
4.66,9.8,5.38,1.007
4.79,7.748,7.795,1.101
3.948,8.062,7.824,1.103
3.387,8.367,7.873,1.104
3.271,8.843,8.686,1.114
3.339,9.205,9.85,1.119
2.272,5.191,13.426,1.202
2.177,5.085,13.945,1.204
2.86,4.711,14.668,1.209
0.976,2.895,15.881,1.211
0.743,0.529,15.086,1.213
0.649,0.404,13.441,1.3
0.461,0.755,12.051,1.302
0.571,1.614,10.843,1.304
0.937,2.753,10.031,1.305
1.082,3.573,9.535,1.31
1.134,4.404,9.242,1.399
1.139,4.133,9.405,1.401
1.444,4.462,9.268,1.404
1.654,4.526,9.307,1.407
1.865,4.59,9.346,1.409
2.014,4.482,8.977,1.5
1.842,4.65,8.343,1.502
2.206,5.635,7.576,1.511
2.526,6.657,7.241,1.513
2.762,6.873,7.408,1.515
2.371,7.687,6.309,1.6
2.364,7.909,6.336,1.602
2.024,7.529,7.136,1.603
1.718,6.845,7.482,1.612
1.364,6.409,7.636,1.614
0.773,4.767,8.587,1.7
0.455,4.619,8.456,1.702
0.263,4.429,8.374,1.703
0.197,4.371,8.906,1.705
0.038,4.348,9.09,1.707
0.164,4.205,8.639,1.8
0.291,4.214,8.317,1.801
0.518,4.548,8.23,1.807
0.712,4.89,8.442,1.809
0.652,5.09,8.362,1.811
0.714,4.943,8.071,1.9
0.839,4.824,8.055,1.91
0.842,5.052,8.25,1.911
0.814,5.343,8.371,1.92
0.781,5.176,8.105,1.922
0.97,5.062,7.928,2.0
1.161,5.176,7.945,2.001
1.225,5.181,7.784,2.003
1.256,5.095,7.421,2.011
1.51,5.062,7.148,2.013
1.797,5.271,7.206,2.1
2.18,5.5,7.24,2.101
1.835,5.719,7.296,2.107
1.108,5.71,7.318,2.109
1.069,5.286,7.663,2.111
1.189,4.986,8.323,2.205
1.378,5.048,8.71,2.207
1.539,5.324,9.155,2.209
1.817,5.071,10.066,2.21
2.231,3.378,10.676,2.299
2.259,3.363,9.733,2.309
2.902,3.492,8.318,2.311
2.476,3.398,8.18,2.312
2.414,3.243,8.329,2.319
-0.533,2.131,7.906,2.401
3.349,2.104,9.541,2.403
0.465,3.039,8.188,2.405
0.794,2.824,9.845,2.407
-0.405,1.263,10.177,2.409
-0.2,1.9,9.8,2.5
0.173,2.778,9.365,2.501
0.601,3.287,9.105,2.503
1.158,3.593,8.888,2.504
1.498,4.125,8.991,2.506
0.9,2.206,10.17,2.604
1.0,0.721,10.623,2.607
1.3,0.585,9.647,2.608
1.0,0.87,10.294,2.61
1.5,2.025,10.636,2.612
3.886,6.818,9.123,2.703
2.494,7.165,9.924,2.705
2.397,6.083,9.662,2.707
2.298,5.888,8.975,2.708
2.208,6.447,8.801,2.71
1.0,7.36,7.52,2.799
1.4,7.26,6.82,2.801
0.8,5.98,7.36,2.803
0.3,5.5,7.5,2.804
0.5,5.48,7.86,2.806
-0.119,5.823,6.97,2.899
0.036,5.967,7.953,2.901
0.058,6.107,7.104,2.903
0.178,6.26,6.248,2.904
0.234,5.692,6.038,2.906
-0.032,5.792,5.172,2.999
0.034,5.596,4.636,3.0
-0.087,6.121,4.653,3.002
-0.185,7.009,5.36,3.004
-0.187,8.121,6.353,3.013
0.768,10.228,6.809,3.106
0.505,10.885,7.328,3.107
0.453,10.113,7.104,3.109
0.426,8.966,6.422,3.111
0.595,8.395,5.632,3.114
0.768,7.628,5.109,3.199
0.895,7.075,4.892,3.206
0.942,6.862,4.587,3.207
0.905,6.885,4.828,3.209
0.963,6.823,5.341,3.21
1.247,6.767,5.556,3.299
1.526,6.906,5.502,3.301
1.547,7.167,5.356,3.303
1.568,7.428,5.209,3.304
1.121,7.621,4.874,3.306
0.642,7.742,4.747,3.4
0.363,7.603,4.801,3.402
0.411,7.831,5.077,3.404
0.289,8.189,5.563,3.413
0.353,8.673,6.024,3.415
0.4,8.9,6.3,3.499
0.368,8.828,6.509,3.501
0.184,9.684,7.395,3.503
2.404,9.196,8.119,3.508
2.685,8.115,7.526,3.509
1.675,5.676,8.545,3.599
1.878,5.465,8.482,3.601
2.115,5.756,8.745,3.603
1.847,5.658,8.373,3.604
1.495,4.916,7.345,3.606
1.305,4.184,6.655,3.7
1.244,4.569,6.436,3.701
1.215,5.456,6.545,3.703
1.333,6.102,6.827,3.705
1.384,6.549,7.236,3.706
1.522,6.152,8.49,3.774
1.84,6.3,8.62,3.776
2.087,5.833,8.393,3.785
2.112,5.39,8.142,3.787
1.733,4.467,8.933,3.901
1.673,4.833,9.543,3.902
1.482,5.1,9.971,3.904
1.812,4.9,9.353,3.905
2.347,2.752,8.419,4.001
2.4,2.16,7.12,4.006
2.263,1.682,6.485,4.008
2.311,1.614,6.164,4.009
2.353,1.648,6.381,4.011
2.363,1.762,6.545,4.012
1.591,0.61,7.091,4.099
1.547,0.449,7.047,4.101
1.525,0.282,7.225,4.107
1.532,0.185,8.032,4.109
1.382,0.25,9.082,4.11
1.064,0.403,10.592,4.199
1.426,0.333,12.279,4.201
0.918,-0.258,12.855,4.218
0.385,-1.396,13.456,4.22
-0.121,-1.001,15.236,4.222
-0.513,-0.223,15.862,4.3
-0.761,0.756,15.417,4.302
-0.667,1.738,12.899,4.303
0.489,2.25,9.968,4.305
1.197,2.641,8.391,4.31
1.533,2.338,8.099,4.4
2.224,2.36,7.673,4.402
2.639,1.556,7.717,4.408
2.157,-0.702,8.272,4.41
0.677,-2.974,9.13,4.412
0.822,-4.251,8.222,4.499
0.459,-2.612,8.259,4.501
-0.02,-2.263,9.18,4.503
-0.378,-2.751,9.722,4.504
-0.784,-2.41,9.816,4.506
0.058,1.405,9.863,4.599
0.026,1.744,9.631,4.609
0.095,2.163,9.458,4.611
0.237,2.958,9.995,4.612
0.484,3.889,10.674,4.614
-1.001,8.512,7.793,4.699
-0.664,7.867,7.153,4.7
-0.498,6.975,6.514,4.702
-0.348,6.381,6.161,4.707
-0.324,6.285,6.334,4.708
-0.13,6.559,6.691,4.799
-0.469,7.329,7.516,4.801
-0.447,7.069,7.368,4.803
-0.308,6.399,6.742,4.804
-0.361,5.465,7.517,4.806
1.44,6.794,6.43,4.899
1.431,6.532,6.284,4.901
1.604,6.117,6.198,4.903
1.864,5.722,6.068,4.904
2.25,5.415,5.775,4.906
2.902,4.247,6.26,4.999
2.679,4.832,6.704,5.005
2.594,6.26,8.021,5.007
3.009,6.587,8.338,5.008
1.983,5.329,8.834,5.01
2.313,5.962,8.227,5.099
2.696,6.011,8.664,5.101
3.022,5.835,8.718,5.103
3.164,5.509,8.836,5.104
2.883,4.001,9.685,5.11
0.8,4.88,9.66,5.202
0.6,4.9,9.3,5.203
0.3,5.46,8.72,5.205
0.763,7.855,7.16,5.212
0.859,8.405,6.789,5.213
1.193,8.513,6.551,5.328
1.442,8.807,6.404,5.329
1.446,9.057,6.775,5.331
1.374,8.891,7.48,5.333
1.244,8.032,7.79,5.351
0.7,5.78,8.46,5.419
0.6,4.56,7.92,5.421
0.6,3.94,7.58,5.422
0.1,3.74,7.18,5.424
-0.3,3.7,6.9,5.43
-1.75,3.103,6.756,5.432
-0.493,1.699,7.236,5.498
-0.289,1.549,6.854,5.499
0.43,0.693,6.659,5.501
0.637,0.641,6.474,5.503
0.952,0.637,6.504,5.598
1.344,0.889,7.089,5.6
1.522,1.244,7.944,5.602
1.389,1.678,9.078,5.608
1.0,1.992,10.774,5.699
0.8,2.477,12.121,5.708
0.5,2.636,12.375,5.712
0.3,3.366,12.981,5.714
0.5,4.391,14.817,5.724
1.069,6.071,13.453,5.803
1.228,5.091,11.66,5.804
0.681,4.235,10.195,5.806
0.92,3.377,9.201,5.807
1.212,3.164,8.841,5.809
1.1,2.325,9.036,5.899
1.3,2.166,8.781,5.901
1.2,2.072,8.251,5.902
1.0,1.723,7.879,5.907
0.6,0.949,7.772,5.909
0.0,0.1,8.3,5.999
-0.4,-0.145,9.042,6.002
-0.8,0.564,9.425,6.004
-1.2,1.092,10.274,6.006
-1.6,1.366,11.281,6.008
-3.518,3.827,10.665,6.099
-3.178,4.09,10.598,6.101
-2.961,4.455,10.151,6.103
-2.447,4.412,9.022,6.112
-1.945,4.92,8.204,6.114
-0.5,6.54,6.78,6.199
-0.2,6.5,6.5,6.208
0.0,6.48,6.86,6.209
0.1,6.66,7.62,6.211
-0.0,6.52,8.14,6.214
0.965,6.304,7.655,6.298
1.005,5.584,7.655,6.3
0.785,5.544,7.555,6.302
0.72,5.54,7.2,6.308
0.702,5.595,7.118,6.309
0.811,5.014,7.677,6.399
1.1,5.3,7.8,6.401
1.577,5.471,7.746,6.403
1.672,5.39,7.222,6.405
1.337,6.371,7.926,6.407
1.473,7.267,9.187,6.5
2.093,6.367,8.847,6.501
2.74,5.0,7.82,6.511
3.153,5.167,7.927,6.513
3.224,5.805,8.719,6.522
3.068,6.01,9.098,6.6
2.562,5.952,8.71,6.602
2.135,4.461,9.012,6.605
1.149,4.204,8.541,6.607
0.645,4.02,7.404,6.609
-1.645,3.904,7.28,6.7
-1.704,4.437,8.016,6.701
-1.943,4.786,8.871,6.703
-1.994,4.745,9.576,6.705
-1.802,4.118,9.908,6.706
-1.262,0.498,10.311,6.799
-0.798,0.082,9.589,6.8
-0.782,-0.142,8.911,6.802
-1.084,0.076,8.522,6.803
-1.258,0.362,8.689,6.805
-2.912,-0.788,8.482,6.9
-3.151,-0.549,8.557,6.91
-3.278,-0.622,8.649,6.912
-3.149,-0.751,8.943,6.913
-2.649,-0.951,9.043,6.921
-1.782,-2.597,8.624,7.002
-1.321,-2.753,8.572,7.004
-1.214,-2.836,8.615,7.005
-1.5,-4.1,8.0,7.007
-1.432,-4.3,8.124,7.008
-1.476,-4.5,8.632,7.098
-1.644,-4.7,9.208,7.099
-1.676,-5.0,10.032,7.101
-1.512,-5.0,10.184,7.103
-2.042,-5.993,8.945,7.198
-2.222,-6.03,9.938,7.2
-2.589,-6.385,11.781,7.202
-1.968,-5.939,11.709,7.203
-1.47,-5.005,11.24,7.205
-1.965,-4.989,11.513,7.298
-2.094,-5.101,10.408,7.308
-1.25,-4.842,9.433,7.31
-0.475,-3.921,9.466,7.311
-0.662,-3.74,9.117,7.313
-0.324,-2.4,8.968,7.398
-0.68,-2.6,8.76,7.4
-1.172,-3.1,8.304,7.402
-1.856,-3.7,7.792,7.404
-2.42,-3.7,7.94,7.405
-2.433,-5.042,8.05,7.498
-2.994,-5.474,8.346,7.5
-3.222,-5.628,8.466,7.502
-3.25,-5.581,8.887,7.503
-3.297,-5.287,8.923,7.505
-2.586,-3.698,9.102,7.599
-2.282,-3.112,8.588,7.6
-2.006,-2.729,8.371,7.602
-1.729,-2.447,8.253,7.604
-1.61,-2.516,8.284,7.605
-1.582,-2.712,8.388,7.698
-1.527,-2.904,8.396,7.7
-1.316,-2.945,8.455,7.701
-1.169,-3.01,8.39,7.703
-0.984,-2.955,8.445,7.708
1.36,-2.52,8.4,7.805
1.372,-2.204,8.2,7.807
1.44,-2.08,8.4,7.809
1.316,-2.012,8.8,7.81
1.22,-2.04,9.1,7.812
1.44,-2.08,8.9,7.898
1.372,-2.204,8.3,7.899
0.892,-2.344,9.6,7.901
0.896,-3.072,11.6,7.903
1.324,-3.468,10.8,7.904
1.86,-3.52,9.2,7.998
1.944,-3.808,10.2,8.004
2.22,-4.04,11.2,8.006
2.508,-3.956,10.5,8.008
2.508,-3.956,9.8,8.018
1.675,-5.246,8.325,8.099
1.087,-4.616,7.613,8.1
0.816,-4.126,7.484,8.107
0.674,-3.932,8.826,8.109
0.0,-5.396,9.572,8.111
-0.297,-4.258,10.703,8.199
-0.254,-4.649,10.546,8.2
0.022,-4.789,9.822,8.202
0.399,-4.914,8.899,8.204
1.3,-5.948,7.536,8.209
1.3,-5.836,7.152,8.274
0.8,-5.56,6.92,8.275
0.5,-5.436,6.852,8.277
0.6,-5.368,6.976,8.279
1.0,-4.628,7.296,8.28
2.389,-4.35,7.732,8.421
2.524,-4.64,7.927,8.423
2.502,-5.727,6.894,8.425
0.649,-7.502,5.257,8.502
0.459,-7.963,5.031,8.504
0.174,-8.503,4.735,8.506
-0.303,-8.813,4.442,8.507
-0.645,-8.581,4.787,8.509
-0.822,-8.386,5.38,8.51
-1.052,-8.406,5.571,8.512
0.4,-7.789,6.46,8.597
0.6,-7.672,6.651,8.599
1.1,-7.734,7.319,8.605
1.5,-8.315,8.253,8.607
1.5,-8.36,6.811,8.698
1.2,-7.43,5.506,8.699
0.7,-8.108,6.026,8.701
0.3,-9.334,7.619,8.703
0.4,-10.011,8.14,8.704
0.3,-9.683,7.991,8.799
0.3,-8.528,7.649,8.802
0.7,-7.479,7.477,8.804
1.1,-6.781,6.734,8.828
1.0,-6.37,5.694,8.83
-0.09,-6.461,4.374,8.898
-0.526,-6.603,3.835,8.9
-0.849,-6.398,4.043,8.902
-1.33,-7.02,4.391,8.903
-1.822,-8.086,4.68,8.905
-0.404,-8.146,7.112,8.974
-0.769,-8.535,7.607,8.976
-1.006,-8.218,7.317,8.977
-0.976,-7.64,7.027,8.979
-0.752,-7.066,7.057,8.98
-1.2,-5.372,7.704,9.098
-0.9,-4.972,7.404,9.101
-0.8,-4.78,7.46,9.103
-0.9,-2.7,8.9,9.11
-1.0,-3.0,9.3,9.2
-1.2,-3.3,9.4,9.201
-1.3,-3.4,9.5,9.203
-1.3,-3.5,9.5,9.213
-1.3,-3.5,9.5,9.214
-1.2,-3.3,9.5,9.216
-0.746,-1.849,9.854,9.298
-0.564,-1.709,9.936,9.3
-0.381,-1.569,10.019,9.302
-0.195,-1.471,9.805,9.306
0.107,-1.499,9.307,9.307
0.407,-1.499,9.007,9.399
0.404,-1.457,9.304,9.401
0.219,-1.469,10.819,9.403
0.256,-1.678,11.456,9.406
0.804,-2.057,10.404,9.408
1.504,-0.627,9.504,9.498
1.688,-0.618,8.988,9.5
1.869,-0.58,8.569,9.502
1.876,-0.635,8.376,9.503
1.604,-0.727,8.704,9.505
1.355,-0.884,9.155,9.597
1.198,-0.986,9.698,9.614
1.043,-0.802,9.743,9.616
0.984,-0.59,9.784,9.618
0.697,0.741,9.991,9.698
0.57,1.021,10.41,9.7
0.517,1.455,10.652,9.701
0.55,1.993,10.851,9.703
0.717,2.169,10.45,9.705
2.482,3.727,9.262,9.798
2.26,3.541,9.183,9.8
1.835,3.142,9.161,9.817
1.717,2.869,9.124,9.819
1.6,2.9,9.0,9.821
1.421,3.007,8.788,9.899
1.374,2.656,8.669,9.902
1.511,2.294,8.424,9.904
1.716,2.091,8.186,9.906
1.805,2.057,8.082,9.908
1.705,1.977,8.022,9.998
1.774,2.136,8.029,10.016
1.974,2.296,8.149,10.018
2.174,2.456,8.269,10.021
2.153,2.648,8.381,10.025
2.035,3.861,8.212,10.098
2.086,4.057,8.571,10.1
2.261,4.255,9.051,10.101
2.412,4.251,9.31,10.103
2.341,4.237,9.467,10.105
2.127,5.094,10.339,10.203
2.276,5.998,12.08,10.204
2.557,5.471,11.714,10.206
2.606,4.376,9.855,10.207
1.984,4.265,9.753,10.209
1.504,4.184,9.337,10.298
1.327,4.194,8.939,10.3
1.167,4.031,9.106,10.301
1.118,3.627,8.665,10.303
1.118,2.827,7.765,10.305
1.098,2.208,7.382,10.403
1.133,2.269,7.594,10.405
1.006,2.376,8.055,10.407
0.69,2.741,8.708,10.408
0.424,3.302,9.72,10.41
1.568,7.207,8.76,10.497
1.446,7.259,8.708,10.499
1.308,6.623,8.01,10.507
1.142,6.397,7.203,10.509
1.123,6.429,6.504,10.512
1.295,6.398,6.069,10.598
1.762,6.465,6.202,10.604
1.918,6.527,6.673,10.606
1.893,6.517,6.916,10.607
1.981,6.232,7.201,10.609
1.544,7.056,6.622,10.698
1.767,7.033,6.633,10.699
1.885,7.215,6.426,10.706
2.167,7.133,6.033,10.708
2.348,6.952,5.641,10.717
3.507,7.463,4.234,10.804
3.454,8.031,4.117,10.809
3.626,8.504,4.199,10.811
4.014,8.625,4.269,10.813
4.513,8.202,3.949,10.815
4.419,8.841,4.365,10.898
4.924,11.158,5.561,10.9
5.187,10.298,5.451,10.901
5.017,8.295,4.426,10.903
4.871,9.026,4.543,10.909
4.582,8.682,4.455,10.998
4.515,7.348,3.988,10.999
4.51,7.032,3.992,11.001
4.278,7.389,4.378,11.007
3.728,7.051,4.437,11.009
1.804,6.596,5.019,11.098
1.611,7.489,5.256,11.099
1.478,8.122,5.589,11.109
1.47,8.03,5.552,11.118
1.385,8.115,5.626,11.12
1.986,7.234,6.832,11.198
2.117,6.687,6.946,11.199
2.275,5.79,6.843,11.201
2.458,5.203,6.797,11.203
2.509,5.164,6.636,11.204
0.987,4.033,7.593,11.297
0.735,4.119,7.496,11.299
0.675,4.319,7.416,11.305
0.93,4.438,7.272,11.306
1.09,4.462,7.088,11.398
1.47,4.538,6.992,11.399
1.69,4.362,6.888,11.401
1.905,3.981,7.024,11.403
2.341,3.576,7.185,11.404
2.745,2.22,8.004,11.498
2.751,2.396,8.659,11.499
2.692,2.833,9.627,11.501
2.961,3.355,10.751,11.511
3.373,3.906,11.561,11.512
3.091,5.148,10.786,11.601
2.853,6.02,10.894,11.603
3.18,7.378,12.035,11.605
3.105,6.929,10.863,11.606
3.068,6.708,9.883,11.608
3.037,6.621,9.68,11.698
2.879,5.372,8.222,11.699
2.72,4.322,7.465,11.701
2.502,3.912,7.525,11.708
2.129,2.486,7.557,11.71
1.537,1.953,7.431,11.798
1.071,2.014,8.243,11.799
0.837,2.153,9.231,11.801
0.637,2.453,9.931,11.803
0.649,2.904,10.741,11.804
0.421,4.876,10.625,11.898
0.27,5.338,10.392,11.899
0.089,5.786,10.023,11.909
0.064,6.105,9.339,11.91
0.13,6.138,8.372,11.912
0.928,7.145,6.036,11.997
1.079,6.859,5.511,12.006
1.26,6.706,5.57,12.007
1.367,6.51,5.917,12.009
1.461,6.335,6.019,12.011
1.552,6.073,6.074,12.097
1.556,5.789,6.172,12.098
1.78,5.788,6.16,12.1
1.906,5.875,5.997,12.101
3.026,6.583,4.677,12.108
2.987,7.209,4.762,12.198
2.926,7.783,4.977,12.2
3.251,7.966,4.953,12.201
3.268,7.521,4.704,12.203
1.904,9.381,4.422,12.205
3.706,10.796,6.919,12.297
4.462,9.426,6.285,12.307
4.953,7.398,4.96,12.309
5.104,7.464,5.013,12.31
5.038,7.674,5.315,12.312
4.008,7.133,6.696,12.398
3.956,7.089,6.572,12.4
3.462,6.764,6.569,12.408
2.875,6.243,6.513,12.409
1.9,6.4,6.7,12.411
1.067,6.698,7.773,12.503
1.391,7.327,8.609,12.504
1.725,7.624,8.855,12.506
1.869,7.493,8.491,12.508
2.091,6.727,7.809,12.509
2.722,4.934,7.99,12.597
2.635,4.61,7.454,12.599
2.163,4.179,7.12,12.603
1.668,4.208,7.183,12.606
1.266,4.296,7.158,12.608
0.971,3.314,7.743,12.697
0.812,3.151,7.91,12.699
0.859,2.863,8.033,12.701
1.282,2.473,7.935,12.702
1.676,2.298,7.78,12.704
2.211,1.334,7.704,12.797
2.368,1.459,7.607,12.799
2.658,1.585,7.623,12.801
3.221,1.827,8.028,12.802
3.511,2.114,8.664,12.804
4.053,0.333,10.127,12.897
5.104,0.378,11.436,12.898
5.129,1.056,11.431,12.9
4.042,1.889,11.038,12.902
3.819,4.177,12.152,12.997
3.786,4.544,12.518,12.999
3.714,3.556,10.882,13.001
3.154,3.215,10.599,13.002
2.894,3.174,10.916,13.004
2.961,2.745,10.097,13.104
3.132,2.229,9.319,13.106
3.02,1.782,8.666,13.107
2.733,1.233,8.233,13.109
2.399,0.996,8.086,13.11
0.881,-0.128,8.742,13.197
0.205,-0.168,9.615,13.199
-0.289,-0.05,10.532,13.205
0.968,2.399,11.187,13.207
0.821,3.067,11.708,13.209
0.805,3.417,11.102,13.298
1.063,3.302,9.825,13.306
1.253,3.448,8.981,13.309
1.395,3.663,8.458,13.311
1.516,3.811,8.226,13.312
1.011,3.663,8.295,13.397
1.131,3.36,8.141,13.399
1.161,3.121,8.181,13.407
1.358,2.976,8.164,13.41
1.786,2.692,7.888,13.421
2.1,2.6,7.6,13.497
2.134,2.605,7.357,13.499
2.075,2.729,7.393,13.5
2.017,2.852,7.429,13.502
1.931,3.16,7.341,13.507
1.872,3.284,7.376,13.603
1.863,3.45,7.626,13.605
2.049,3.528,7.942,13.606
2.264,3.365,8.298,13.608
2.203,3.245,8.617,13.61
1.84,2.274,10.749,13.696
2.087,2.966,14.532,13.698
2.781,2.249,14.298,13.7
3.368,1.215,11.43,13.702
3.243,1.347,11.594,13.703
1.08,0.685,12.439,13.801
1.652,0.866,12.157,13.803
2.011,1.15,11.932,13.805
1.837,1.483,11.011,13.814
1.689,1.45,9.268,13.816
1.2,0.36,8.02,13.898
0.6,0.512,8.184,13.9
-0.1,0.256,9.092,13.905
-0.5,-0.208,9.644,13.907
-0.7,-0.22,9.96,13.908
-0.6,-3.3,9.8,13.997
-0.4,-3.4,9.4,13.999
-0.1,-3.6,8.6,14.0
0.703,-4.742,7.397,14.005
1.084,-4.574,7.316,14.007
0.721,-5.322,6.567,14.122
0.658,-5.14,6.621,14.124
0.67,-4.994,6.883,14.125
0.764,-4.967,6.902,14.127
0.9,-5.0,6.8,14.129
2.049,-5.436,5.772,14.198
2.326,-5.432,5.564,14.2
2.736,-5.47,5.34,14.21
2.874,-5.468,5.236,14.211
2.902,-5.328,5.755,14.213
2.913,-6.366,6.132,14.215
2.089,-8.494,5.824,14.302
1.911,-9.006,6.676,14.303
1.811,-9.766,6.996,14.305
1.868,-10.661,7.233,14.307
-0.729,-11.716,7.277,14.402
-0.249,-12.798,7.843,14.403
0.423,-12.01,6.906,14.405
0.655,-9.981,5.887,14.407
0.838,-8.349,5.811,14.408
2.2,-7.343,6.502,14.498
2.2,-7.3,7.0,14.504
1.7,-7.692,6.874,14.506
1.0,-8.011,6.44,14.508
0.5,-8.055,5.942,14.51
-0.79,-7.961,4.574,14.596
-0.995,-7.778,3.93,14.616
-1.415,-8.26,3.896,14.618
-1.791,-8.666,4.288,14.62
-0.865,-9.939,3.588,14.697
-0.931,-10.478,4.176,14.699
-0.839,-10.645,4.849,14.702
-0.733,-10.469,5.294,14.704
-0.622,-9.81,5.502,14.707
-1.16,-8.0,7.12,14.797
-1.195,-7.464,7.225,14.803
-1.145,-7.036,7.155,14.805
-0.98,-6.8,6.86,14.806
-0.735,-6.864,6.505,14.808
-0.125,-5.947,6.994,14.897
0.121,-5.905,6.609,14.899
0.428,-5.902,6.104,14.9
0.569,-5.737,5.873,14.902
0.692,-5.616,5.731,14.903
0.788,-5.367,5.534,14.997
0.788,-5.367,5.534,15.007
0.762,-5.227,6.053,15.008
0.912,-5.033,6.066,15.01
1.145,-3.838,6.958,15.012
2.015,-3.332,7.235,15.099
2.108,-3.589,7.048,15.1
2.095,-4.032,6.795,15.102
1.388,-4.789,8.508,15.104
1.083,-6.121,11.003,15.109
1.334,-7.943,9.185,15.197
1.936,-7.77,8.74,15.198
2.181,-8.851,10.002,15.2
2.351,-9.264,10.028,15.202
2.7,-9.4,10.2,15.203
0.816,-11.965,6.953,15.297
0.541,-10.263,6.033,15.298
0.702,-8.608,4.982,15.305
0.647,-7.488,4.778,15.307
0.033,-7.331,5.806,15.308
-1.285,-8.413,5.411,15.398
-2.061,-8.767,4.995,15.4
-2.707,-9.041,4.388,15.401
-2.656,-9.922,1.344,15.403
-3.092,-9.57,-0.745,15.405
-1.096,-9.235,-2.209,15.471
-0.8,-8.48,-2.36,15.473
-0.596,-7.955,-2.249,15.475
-0.617,-7.721,-1.785,15.476
-0.962,-7.34,-1.858,15.484
-0.898,-7.517,-1.568,15.596
-0.925,-7.679,-1.317,15.598
-0.187,-7.619,-1.855,15.605
-0.163,-7.193,-3.014,15.607
0.114,-7.135,-3.33,15.698
0.395,-7.488,-3.623,15.7
0.728,-8.07,-3.66,15.701
0.816,-8.291,-3.719,15.703
0.821,-8.902,-3.795,15.705
0.607,-9.667,-3.965,15.714
-0.408,-10.339,-4.261,15.818
-0.486,-10.831,-4.369,15.823
-0.314,-10.969,-4.331,15.825
-0.294,-10.571,-4.029,15.827
-0.451,-11.155,-3.845,15.828
0.581,-12.487,-5.532,15.897
0.936,-11.837,-5.326,15.898
1.273,-10.475,-5.153,15.9
1.325,-11.247,-5.527,15.902
1.47,-10.497,-5.133,15.908
1.595,-8.855,-4.551,16.001
1.345,-8.149,-4.305,16.003
1.167,-7.93,-4.303,16.005
1.089,-7.81,-4.401,16.006
0.563,-7.874,-4.264,16.009
0.14,-8.404,-3.656,16.097
0.152,-9.484,-3.965,16.098
-0.426,-9.664,-5.463,16.1
-0.797,-9.967,-5.13,16.11
-0.778,-10.78,-4.198,16.112
-0.25,-11.039,-4.133,16.171
-0.307,-10.377,-3.676,16.177
-0.21,-9.843,-3.08,16.179
0.058,-9.708,-3.201,16.181
-0.145,-9.565,-3.421,16.296
-0.075,-8.746,-3.543,16.297
-0.02,-8.126,-3.691,16.299
0.014,-7.802,-3.875,16.304
-0.536,-7.756,-3.431,16.398
-0.345,-7.485,-3.444,16.399
-0.118,-7.338,-3.185,16.405
0.091,-7.289,-2.933,16.407
0.345,-7.455,-2.636,16.41
0.636,-7.724,-2.429,16.412
0.918,-8.202,-2.095,16.496
1.082,-8.558,-1.725,16.498
0.836,-8.824,-1.629,16.501
0.609,-9.291,-1.627,16.513
0.627,-9.793,-1.822,16.515
0.836,-10.024,-2.029,16.596
1.264,-10.296,-2.211,16.598
1.191,-10.669,-2.593,16.6
0.218,-12.382,-3.355,16.603
1.341,-14.077,-5.372,16.604
0.877,-11.694,-6.534,16.696
1.64,-10.685,-5.591,16.698
1.715,-10.804,-5.577,16.7
2.224,-10.103,-4.368,16.706
1.529,-8.97,-4.061,16.708
1.358,-7.238,-5.113,16.796
0.432,-7.652,-4.351,16.802
-0.495,-8.605,-3.868,16.805
-1.095,-9.085,-4.228,16.807
-1.432,-9.248,-4.949,16.809
-3.225,-6.999,-7.009,16.902
-3.048,-6.09,-7.189,16.904
-2.505,-5.12,-7.422,16.914
-1.634,-4.335,-7.488,16.916
-1.099,-3.896,-7.636,16.917
0.675,-1.467,-8.369,16.996
0.639,-1.567,-8.01,16.998
0.788,-1.9,-7.447,17.003
0.886,-2.267,-7.122,17.005
1.234,-1.805,-7.257,17.007
1.252,-2.087,-7.431,17.098
1.518,-2.267,-7.801,17.099
0.607,-1.775,-8.507,17.107
0.884,-1.805,-8.884,17.108
1.211,-1.763,-9.311,17.11
1.489,-0.152,-9.789,17.196
1.695,-0.055,-10.395,17.198
1.86,-0.154,-11.46,17.2
1.871,-0.302,-12.271,17.201
2.068,-0.415,-12.568,17.203
1.364,-0.203,-12.992,17.296
1.612,-0.937,-14.535,17.306
1.926,-1.533,-14.279,17.308
2.21,-1.864,-11.729,17.31
2.217,-2.169,-9.95,17.32
2.283,-2.331,-9.55,17.4
2.117,-2.155,-9.952,17.401
1.885,-1.704,-10.256,17.403
1.44,-1.243,-10.119,17.407
1.276,-0.84,-9.527,17.409
0.915,-1.796,-8.73,17.496
0.585,-1.104,-8.77,17.498
0.167,-0.833,-9.133,17.5
-0.193,-1.448,-9.315,17.501
-0.426,-2.081,-9.848,17.503
-0.331,-0.744,-10.569,17.596
-0.428,-0.631,-10.172,17.598
-0.334,-0.557,-9.666,17.599
-0.195,-0.645,-9.205,17.601
-0.218,-0.65,-8.982,17.603
-1.663,-1.691,-8.559,17.696
-1.942,-1.572,-8.651,17.698
-2.013,-1.325,-8.768,17.699
-1.972,-1.085,-8.799,17.702
-1.906,-0.996,-8.993,17.703
-1.935,-1.044,-9.076,17.796
-1.851,-1.099,-9.073,17.798
-1.697,-1.402,-8.953,17.799
-1.607,-1.629,-8.975,17.801
-1.398,-2.035,-8.936,17.803
-0.641,-5.322,-7.639,17.896
-0.355,-5.565,-7.467,17.897
-0.227,-5.88,-7.31,17.899
-0.088,-6.363,-7.118,17.901
-0.041,-7.522,-6.739,17.997
-0.039,-8.516,-6.692,17.999
-0.59,-8.669,-7.565,18.0
-1.231,-8.092,-8.304,18.002
-2.545,-7.335,-8.833,18.003
0.468,-3.625,-11.187,18.096
2.031,-1.46,-10.041,18.098
4.165,2.368,-8.475,18.1
4.948,2.389,-9.072,18.101
4.976,2.205,-10.064,18.103
3.198,0.872,-10.355,18.196
2.045,0.281,-10.338,18.198
1.043,-0.447,-10.694,18.199
1.051,-0.736,-10.772,18.21
-0.31,-0.381,-10.29,18.212
-0.359,-2.115,-9.481,18.3
-0.122,-2.656,-9.056,18.302
-0.167,-3.067,-8.567,18.304
-0.296,-3.674,-9.007,18.305
-0.256,-3.689,-9.589,18.307
0.052,-2.937,-9.604,18.397
0.267,-2.033,-9.233,18.4
0.381,-1.53,-8.963,18.402
0.237,-1.241,-8.774,18.412
-0.3,-1.2,-8.4,18.424
-0.364,-0.13,-8.536,18.496
-0.603,-0.213,-8.697,18.498
-0.511,-0.252,-8.689,18.499
-0.153,-0.449,-8.747,18.501
0.336,-0.601,-8.836,18.502
1.56,1.648,-8.653,18.596
2.136,1.701,-8.779,18.598
2.635,1.863,-8.412,18.599
2.912,1.754,-8.304,18.601
3.163,2.061,-8.454,18.602
2.369,1.18,-8.969,18.695
2.465,1.053,-9.665,18.696
3.469,-0.72,-10.969,18.698
1.953,-0.729,-12.153,18.7
1.031,1.82,-12.531,18.701
0.339,1.775,-13.739,18.796
0.527,1.592,-14.527,18.798
1.318,1.324,-12.818,18.799
1.476,0.335,-10.876,18.809
1.078,-0.551,-9.878,18.81
1.533,-1.067,-9.333,18.896
1.498,-1.214,-9.498,18.898
1.451,-0.643,-9.451,18.899
1.275,0.222,-9.275,18.901
0.998,1.086,-9.198,18.902
0.751,1.757,-8.651,18.995
0.276,2.335,-8.276,18.997
-0.161,2.575,-8.639,18.999
-0.573,2.492,-9.327,19.0
-0.943,2.198,-9.957,19.002
-1.226,0.711,-10.674,19.096
-1.638,0.388,-11.262,19.098
-1.756,0.138,-11.144,19.103
-1.619,-0.121,-10.281,19.105
-1.398,-0.458,-9.502,19.107
-2.857,-3.09,-7.969,19.202
-2.418,-3.318,-7.676,19.203
-2.18,-3.514,-7.604,19.213
-2.045,-3.478,-7.951,19.215
-1.882,-3.382,-8.224,19.216
-1.105,-6.02,-6.922,19.298
-1.041,-6.262,-7.139,19.3
-1.032,-6.427,-7.459,19.305
-0.961,-6.546,-7.49,19.306
-0.87,-6.581,-7.469,19.308
-0.724,-6.695,-7.345,19.396
-0.662,-6.65,-7.054,19.398
-0.622,-6.687,-6.816,19.399
-0.811,-6.944,-6.908,19.401
-0.711,-7.144,-7.208,19.402
0.736,-7.185,-7.532,19.495
1.363,-7.206,-7.318,19.496
1.421,-7.166,-7.39,19.498
1.354,-8.332,-8.523,19.5
3.596,-8.183,-7.302,19.596
3.784,-6.434,-5.908,19.598
3.59,-6.609,-5.605,19.614
3.36,-7.506,-6.27,19.616
3.466,-7.681,-6.567,19.617
2.011,-7.691,-6.496,19.695
1.944,-7.484,-6.442,19.697
1.722,-7.042,-6.371,19.699
1.411,-6.671,-6.136,19.7
-0.588,-6.152,-6.528,19.702
-0.972,-6.789,-6.898,19.796
-1.125,-7.699,-7.309,19.798
-0.92,-8.379,-6.487,19.799
-0.906,-7.724,-6.386,19.808
-0.908,-7.032,-7.115,19.81
-0.321,-4.585,-8.698,19.897
-0.133,-4.13,-8.612,19.898
-0.213,-3.554,-8.578,19.9
-0.252,-3.007,-8.247,19.902
-0.462,-2.847,-7.93,19.903
0.96,-1.806,-8.209,19.996
0.763,-1.95,-8.226,20.006
0.699,-2.185,-8.428,20.007
0.97,-2.554,-8.432,20.019
1.358,-2.676,-8.364,20.021
0.854,-0.88,-8.654,20.095
1.08,-0.592,-8.58,20.106
1.307,-0.303,-8.507,20.109
1.524,-0.053,-8.524,20.111
1.8,0.0,-8.9,20.113
1.842,-0.104,-9.842,20.198
1.828,-0.369,-10.928,20.2
1.663,1.239,-11.663,20.206
1.359,1.212,-12.059,20.207
0.896,0.873,-13.296,20.209
0.658,-1.184,-14.175,20.299
1.039,-0.956,-12.317,20.3
1.157,-1.298,-11.072,20.302
1.418,-1.642,-11.255,20.304
1.383,-1.831,-10.95,20.305
1.504,-1.446,-9.812,20.401
1.29,-0.636,-9.071,20.403
1.106,0.282,-8.817,20.404
0.869,0.765,-8.807,20.406
0.413,1.177,-8.538,20.408
0.463,2.639,-8.163,20.499
0.049,2.943,-8.649,20.501
-0.075,2.778,-9.325,20.502
-0.318,2.576,-9.882,20.504
-0.525,2.422,-10.975,20.506
-0.433,0.714,-12.167,20.595
-0.598,0.342,-12.102,20.601
-0.679,-0.166,-11.221,20.603
-1.222,-2.456,-10.256,20.605
-1.233,-3.233,-10.133,20.606
-2.937,-4.704,-9.173,20.695
-2.555,-4.822,-8.949,20.697
-2.255,-4.422,-8.849,20.698
-2.28,-4.014,-8.904,20.7
-2.161,-3.527,-8.808,20.714
-1.212,-4.837,-7.982,20.795
-1.041,-4.522,-7.939,20.797
-1.1,-4.4,-7.9,20.798
-0.992,-4.376,-7.812,20.8
-0.755,-4.565,-7.367,20.801
0.452,-5.314,-6.424,20.895
0.659,-5.569,-6.121,20.897
0.732,-5.857,-6.084,20.898
-0.014,-6.857,-5.429,20.903
0.206,-7.004,-5.288,20.905
0.553,-7.102,-5.294,20.97
1.061,-7.141,-5.278,20.976
0.782,-7.688,-5.837,20.978
0.716,-9.278,-6.967,20.98
1.533,-9.655,-6.935,20.987
2.464,-8.015,-7.168,21.093
1.507,-8.155,-6.897,21.095
1.06,-8.178,-7.27,21.097
2.075,-7.239,-7.796,21.196
2.24,-6.751,-8.177,21.198
1.851,-6.177,-8.793,21.2
1.291,-5.228,-8.87,21.205
1.358,-3.848,-9.35,21.207
1.026,-4.857,-9.249,21.208
-2.025,-3.992,-9.955,21.295
-2.0,-4.4,-9.9,21.297
-2.073,-4.539,-9.625,21.298
-1.853,-4.053,-9.029,21.3
-1.624,-3.324,-8.635,21.301
-0.063,-1.641,-8.974,21.395
0.011,-1.322,-8.822,21.397
-0.07,-1.193,-8.659,21.398
-0.43,-1.307,-8.441,21.4
-0.907,-1.552,-8.485,21.401
-0.62,-0.292,-8.88,21.495
-0.306,-0.326,-8.894,21.497
0.078,-0.405,-8.678,21.498
0.608,-0.361,-8.308,21.509
0.673,-0.16,-8.073,21.513
0.949,1.443,-8.049,21.595
1.378,1.849,-8.078,21.6
1.669,2.08,-8.469,21.602
1.939,2.175,-9.339,21.603
3.073,1.608,-10.473,21.605
3.465,-0.047,-11.265,21.695
2.002,1.314,-11.802,21.696
1.427,3.192,-12.627,21.698
0.453,3.571,-14.153,21.7
0.498,3.286,-14.698,21.701
-0.347,-0.952,-13.26,21.817
-0.456,-2.288,-12.331,21.818
-0.264,-3.697,-11.708,21.82
0.961,-5.044,-11.583,21.822
1.711,-5.35,-11.032,21.823
1.07,-5.607,-9.241,21.896
1.096,-3.226,-7.993,21.897
1.222,-1.744,-7.144,21.916
0.652,-1.037,-6.704,21.918
-0.007,-0.752,-6.585,21.92
0.755,0.119,-6.962,21.997
0.602,0.328,-7.745,21.999
0.645,0.081,-8.738,22.0
0.221,-0.323,-10.347,22.002
-0.164,-0.63,-10.66,22.004
-0.015,-0.594,-9.887,22.095
0.236,-0.93,-9.26,22.096
0.764,-1.27,-8.84,22.098
1.247,-1.491,-8.483,22.1
1.551,-1.636,-8.172,22.105
0.186,-2.449,-8.286,22.195
0.142,-2.453,-8.742,22.197
0.198,-2.456,-9.098,22.199
0.418,-2.339,-9.318,22.2
0.567,-2.267,-9.267,22.202
1.606,-4.0,-8.676,22.295
1.647,-4.0,-8.812,22.307
1.52,-4.133,-8.555,22.309
1.522,-4.367,-8.48,22.312
1.331,-4.933,-8.908,22.314
1.642,-3.975,-10.297,22.395
1.826,-3.704,-10.351,22.397
2.126,-3.104,-9.651,22.398
2.342,-2.595,-9.137,22.4
2.321,-2.687,-10.048,22.408
2.584,-3.009,-11.514,22.495
2.8,-2.34,-10.38,22.496
2.484,-2.029,-9.154,22.498
0.878,-1.956,-10.156,22.505
0.856,-2.611,-10.811,22.506
0.781,-2.73,-10.263,22.595
0.615,-2.396,-9.63,22.601
0.622,-1.844,-9.144,22.602
0.7,-1.4,-8.6,22.604
0.793,-1.352,-8.285,22.606
0.556,-1.611,-8.811,22.695
0.515,-1.996,-9.63,22.697
0.437,-2.441,-10.174,22.698
0.341,-2.915,-10.581,22.7
0.411,-3.022,-10.522,22.701
0.986,-1.665,-10.186,22.805
1.367,-1.386,-9.467,22.807
1.701,-1.229,-8.801,22.808
2.249,-1.107,-8.249,22.81
2.513,-0.906,-7.813,22.895
2.391,-0.91,-7.691,22.897
2.042,-1.204,-7.642,22.898
1.724,-1.453,-7.724,22.9
1.647,-1.449,-8.047,22.901
1.848,-1.278,-8.248,22.995
1.965,-1.028,-8.365,23.002
2.052,-0.822,-8.352,23.003
1.983,-0.779,-8.583,23.005
1.872,-0.931,-9.272,23.007
1.736,-1.201,-10.236,23.095
1.786,-1.265,-11.086,23.1
1.594,-1.226,-11.194,23.102
1.283,-1.079,-10.683,23.104
0.486,-0.99,-10.859,23.105
0.457,-1.698,-13.172,23.195
0.964,-1.603,-12.792,23.196
1.382,-0.958,-10.245,23.198
1.165,-0.989,-9.895,23.2
0.959,-1.271,-11.078,23.201
1.174,-1.167,-11.021,23.295
1.626,-0.633,-10.179,23.297
1.853,-0.252,-9.26,23.298
2.138,-0.27,-8.714,23.3
2.177,-0.726,-8.73,23.302
2.527,0.592,-9.327,23.395
2.069,1.08,-9.969,23.401
1.496,1.173,-10.596,23.402
1.235,1.247,-11.335,23.404
1.304,1.127,-11.304,23.417
1.456,-0.838,-10.256,23.495
1.471,-1.102,-9.271,23.496
1.361,-1.483,-8.661,23.498
1.042,-1.904,-8.342,23.5
1.02,-1.908,-8.12,23.501
-0.457,-1.721,-7.983,23.594
-0.809,-1.496,-8.323,23.596
-1.004,-1.398,-8.762,23.602
-0.991,-1.604,-8.677,23.603
-1.032,-1.934,-8.413,23.605
-1.283,-1.109,-8.253,23.695
-1.187,-0.006,-8.415,23.696
-0.906,0.353,-8.643,23.703
0.0,1.5,-8.6,23.705
0.039,1.588,-8.947,23.706
1.326,1.641,-9.163,23.795
1.789,1.411,-9.344,23.8
2.078,1.122,-9.289,23.802
2.711,0.789,-9.456,23.814
2.696,0.737,-9.648,23.817
1.726,-1.011,-11.626,23.895
1.927,-1.14,-13.227,23.9
2.43,-1.027,-12.23,23.902
2.652,-1.722,-11.952,23.904
3.023,-1.824,-10.523,23.905
3.628,-0.506,-8.984,23.995
3.737,-0.283,-8.211,23.997
3.093,-0.595,-8.38,23.999
2.24,-1.043,-8.919,24.0
1.589,-1.55,-9.768,24.002
1.329,-2.192,-10.787,24.094
1.174,-1.967,-11.321,24.096
1.746,-1.161,-9.837,24.098
2.387,-0.477,-7.862,24.099
2.515,-0.196,-7.444,24.101
2.259,-2.085,-8.319,24.195
1.893,-2.952,-9.285,24.196
1.219,-3.27,-9.737,24.216
0.489,-3.178,-9.378,24.218
0.119,-2.77,-8.537,24.22
0.452,-1.222,-8.252,24.295
0.953,-1.051,-8.153,24.296
1.429,-0.998,-8.329,24.298
1.791,-0.91,-8.291,24.3
2.065,-1.028,-8.265,24.302
2.393,-1.097,-8.593,24.396
2.551,-1.293,-8.851,24.398
3.026,-0.759,-9.063,24.403
3.096,-0.863,-9.248,24.405
2.859,-0.893,-9.43,24.406
2.258,-1.896,-9.658,24.494
1.91,-2.019,-10.01,24.496
1.624,-2.053,-10.624,24.497
1.522,-1.995,-11.622,24.503
1.937,-0.339,-14.137,24.595
2.165,-0.347,-14.665,24.596
2.49,-0.269,-11.89,24.608
2.125,-0.622,-10.525,24.61
1.669,-1.12,-10.469,24.622
2.1,0.3,-10.1,24.698
2.639,0.815,-9.48,24.7
2.636,1.601,-8.679,24.702
1.65,2.131,-8.117,24.703
0.764,4.048,-8.2,24.705
0.092,4.244,-8.9,24.799
-0.224,4.232,-9.4,24.8
-0.444,4.192,-9.8,24.802
-0.432,3.876,-9.9,24.804
-0.256,3.408,-9.4,24.805
-1.517,4.586,-8.049,24.894
-1.171,4.157,-7.486,24.896
-0.901,4.005,-7.164,24.898
-1.01,4.152,-7.002,24.9
-1.301,4.505,-6.964,24.901
-0.642,5.64,-6.421,24.994
-0.264,5.833,-6.398,25.004
0.176,5.907,-6.42,25.005
1.447,6.609,-5.717,25.012
1.662,6.702,-5.904,25.013
1.613,6.666,-6.032,25.094
1.502,6.928,-6.455,25.096
1.253,7.191,-6.983,25.098
1.187,7.334,-7.468,25.099
1.357,7.147,-7.794,25.104
0.53,5.806,-8.717,25.194
0.824,5.693,-8.68,25.196
1.127,5.549,-8.548,25.197
0.864,5.567,-8.302,25.199
0.964,8.23,-9.36,25.201
0.289,11.354,-8.844,25.294
1.3,9.02,-6.14,25.297
1.532,7.839,-5.267,25.299
1.126,9.056,-6.469,25.307
1.516,8.269,-5.334,25.31
2.005,7.403,-4.138,25.394
2.047,7.788,-4.361,25.397
1.763,7.598,-4.475,25.399
1.647,6.908,-4.701,25.402
1.379,7.127,-5.628,25.404
0.429,8.814,-5.443,25.494
0.586,9.343,-5.929,25.495
0.912,9.049,-5.69,25.497
1.147,8.488,-5.278,25.499
1.365,8.061,-5.012,25.5
1.455,8.12,-5.104,25.594
2.416,8.405,-4.199,25.596
2.419,8.176,-4.005,25.598
2.297,7.829,-3.794,25.6
2.206,7.543,-3.511,25.602
2.145,7.319,-3.156,25.695
2.083,7.171,-2.866,25.696
2.117,6.929,-2.534,25.702
2.402,6.848,-2.17,25.704
2.623,6.871,-2.146,25.716
2.527,7.067,-2.687,25.794
2.422,7.848,-3.31,25.796
2.195,8.281,-3.724,25.797
2.098,8.452,-3.83,25.799
1.933,8.933,-4.033,25.801
1.732,9.71,-4.198,25.894
1.82,10.2,-4.24,25.896
2.007,10.367,-4.047,25.898
2.137,10.029,-3.674,25.899
1.854,9.857,-3.409,25.901
-0.384,11.607,-3.998,25.994
-0.174,13.243,-4.759,25.996
0.415,11.313,-3.411,25.997
0.178,10.034,-2.69,25.999
-0.172,10.931,-3.434,26.001
-0.22,10.822,-3.865,26.093
-0.193,10.259,-3.912,26.095
-0.324,10.546,-4.016,26.097
-0.248,9.885,-3.718,26.109
1.004,9.111,-2.264,26.195
0.771,9.013,-2.391,26.202
1.297,9.129,-3.794,26.204
1.041,9.324,-3.715,26.205
0.785,9.519,-3.636,26.207
-0.277,9.985,-2.945,26.294
-0.068,10.098,-3.006,26.296
0.181,10.221,-3.236,26.297
0.3,9.4,-3.2,26.299
0.302,8.153,-3.04,26.304
0.653,6.713,-4.103,26.394
0.663,6.641,-4.035,26.396
0.578,7.095,-4.274,26.397
0.679,7.22,-4.155,26.4
0.8,7.2,-3.9,26.401
0.851,7.263,-3.841,26.495
0.977,7.369,-3.892,26.5
1.022,7.205,-3.926,26.502
1.067,7.042,-3.96,26.514
0.977,7.269,-4.292,26.517
0.797,7.824,-4.556,26.594
0.848,8.312,-4.778,26.596
0.849,8.737,-5.059,26.598
0.935,8.709,-5.102,26.599
1.09,8.173,-4.668,26.601
1.129,8.5,-5.518,26.694
1.406,11.2,-7.524,26.695
2.322,11.133,-6.62,26.697
3.114,8.467,-4.422,26.698
2.847,8.4,-4.488,26.7
1.645,11.319,-4.156,26.769
1.912,12.61,-4.958,26.77
2.543,12.671,-4.586,26.772
2.774,11.857,-3.849,26.774
2.74,9.8,-3.18,26.775
1.059,7.845,-2.33,26.892
1.305,6.871,-2.437,26.894
0.877,7.34,-3.203,26.905
0.019,8.283,-3.948,26.917
-0.391,8.948,-4.486,26.995
-0.653,9.52,-4.694,26.997
-0.654,9.726,-4.607,26.998
-0.152,9.415,-3.982,27.0
0.14,8.961,-3.483,27.005
0.363,8.821,-3.38,27.007
0.451,8.98,-1.887,27.094
0.476,8.67,-1.83,27.096
0.294,8.442,-1.758,27.097
0.138,8.265,-1.602,27.099
1.056,7.856,-0.822,27.101
0.567,7.367,-0.867,27.194
1.344,7.044,-0.478,27.195
2.359,7.059,-0.104,27.197
3.011,7.311,-0.144,27.199
3.237,7.437,-0.415,27.2
2.573,7.827,-0.418,27.301
2.139,8.394,-0.752,27.315
1.649,9.462,-0.76,27.317
1.282,10.718,-0.545,27.319
0.936,11.564,-0.309,27.321
1.707,11.807,-1.063,27.398
1.426,11.726,-0.67,27.399
0.956,12.356,-0.622,27.401
0.81,14.41,2.098,27.403
1.039,13.739,2.292,27.404
1.22,11.52,2.396,27.494
1.208,11.108,2.378,27.495
1.457,11.357,2.069,27.497
1.773,11.173,1.625,27.499
2.0,10.5,1.3,27.5
2.082,9.282,1.324,27.594
1.988,8.088,1.482,27.595
1.665,7.565,1.447,27.597
1.265,7.965,1.447,27.599
0.696,8.996,1.561,27.606
0.204,10.104,1.539,27.694
-0.231,11.269,1.286,27.699
-0.494,11.606,0.959,27.701
-0.225,10.875,0.845,27.702
0.135,10.435,0.653,27.704
-0.295,10.284,-0.704,27.793
0.127,10.073,-0.982,27.795
0.132,9.757,-0.986,27.796
-0.06,9.371,-0.732,27.803
0.947,8.949,0.191,27.894
1.073,8.691,0.409,27.895
1.055,8.518,0.582,27.897
1.087,7.929,0.691,27.898
0.982,7.327,0.773,27.9
0.667,7.136,1.416,27.998
0.732,7.056,1.638,28.0
1.258,7.566,2.296,28.002
1.387,8.099,2.494,28.004
1.313,8.601,2.606,28.005
1.289,9.215,2.787,28.094
1.379,9.629,2.775,28.095
1.593,9.746,2.574,28.097
1.796,9.869,2.514,28.098
2.38,10.1,3.34,28.104
1.285,13.2,4.123,28.199
1.7,13.3,4.6,28.201
2.177,9.7,4.185,28.203
2.154,10.4,3.869,28.207
1.823,12.2,4.115,28.209
0.947,10.227,5.071,28.298
1.21,9.357,4.92,28.3
0.986,9.054,4.752,28.302
0.864,8.507,4.115,28.303
1.386,8.014,4.163,28.305
0.732,7.852,4.751,28.394
0.437,7.997,4.899,28.395
0.395,8.015,5.472,28.397
0.158,8.198,5.833,28.398
0.237,8.397,6.199,28.411
-0.815,6.459,8.465,28.495
-0.112,5.848,8.572,28.497
0.49,5.24,8.244,28.5
0.782,4.771,7.758,28.502
0.869,4.723,7.095,28.504
0.935,4.096,7.302,28.597
0.729,4.214,7.243,28.599
0.665,4.504,7.198,28.6
0.714,4.557,7.471,28.602
0.788,4.537,7.682,28.604
2.548,4.553,7.933,28.694
2.769,4.583,8.233,28.695
2.931,3.717,8.467,28.697
3.147,3.114,8.867,28.699
2.923,2.768,9.367,28.7
3.869,0.864,9.916,28.793
4.582,0.473,9.427,28.795
5.204,0.845,9.075,28.797
6.64,0.9,10.02,28.808
7.895,0.282,11.238,28.811
8.325,0.118,12.222,28.894
8.729,1.264,12.896,28.897
9.613,4.309,12.711,28.899
8.986,5.955,13.786,28.908
8.684,1.92,14.484,28.91
12.02,1.231,12.339,28.993
12.71,-0.835,12.169,28.995
11.257,-0.714,10.629,28.997
9.529,-0.857,8.814,28.998
7.869,-0.996,7.292,29.0
7.893,0.522,3.973,29.093
6.589,0.033,2.909,29.095
6.758,-0.375,2.118,29.097
7.589,-1.967,2.509,29.098
5.944,-1.768,0.638,29.1
6.001,-0.162,0.364,29.193
7.092,-0.605,1.79,29.195
3.06,-2.4,1.92,29.207
-4.635,-4.61,-0.661,29.209
-9.393,-3.633,-4.753,29.22
1.239,-3.216,-11.592,29.332
0.822,-1.867,-10.316,29.334
-0.555,1.465,-7.133,29.335
-0.559,2.978,-4.939,29.337
1.24,2.68,-5.7,29.342
1.464,1.048,-7.78,29.396
0.596,0.372,-8.42,29.402
1.9,1.5,-9.2,29.405
1.164,2.809,-10.364,29.407
2.215,0.955,-11.277,29.494
2.728,1.017,-10.885,29.496
3.243,0.372,-10.462,29.498
3.657,-0.172,-10.638,29.499
3.07,0.089,-10.447,29.501
4.46,0.72,-9.5,29.593
4.643,0.502,-9.595,29.595
4.735,0.143,-9.542,29.607
4.564,-0.051,-9.426,29.609
4.272,-0.099,-9.247,29.611
4.216,0.011,-8.974,29.672
4.087,0.112,-8.821,29.674
4.033,0.228,-8.879,29.675
3.708,0.459,-8.453,29.677
3.482,0.875,-8.263,29.678
3.551,0.354,-8.516,29.794
3.9,0.3,-9.3,29.797
3.54,0.78,-9.2,29.799
3.68,0.76,-9.2,29.801
3.985,0.397,-9.358,29.877
4.125,0.377,-9.358,29.878
4.071,0.494,-9.416,29.886
4.333,0.328,-9.479,29.887
4.497,-0.022,-9.305,29.889
4.918,-0.575,-9.437,29.89
2.5,-0.6,-10.0,29.996
1.679,-0.136,-10.019,30.008
1.757,-0.372,-10.238,30.01
1.657,-0.472,-9.938,30.012
0.964,-0.538,-9.564,30.097
0.739,-0.127,-9.139,30.098
0.744,-0.047,-9.544,30.1
0.902,-0.01,-10.202,30.105
0.78,-0.009,-10.08,30.107
0.966,-0.048,-9.566,30.109
