vertical_Accel_x,vertical_Accel_y,vertical_Accel_z,accel_time_list
2.858,-3.107,-10.755,0.0
2.094,-2.258,-11.426,0.002
0.236,-2.196,-8.066,0.004
0.058,-0.562,-9.06,0.005
1.262,-2.257,-10.309,0.107
1.325,-1.913,-10.219,0.109
1.492,-1.611,-9.602,0.11
1.353,-2.321,-9.687,0.113
1.221,-2.619,-9.57,0.114
1.204,-2.094,-9.449,0.116
1.125,-1.913,-9.419,0.202
1.14,-1.891,-9.515,0.204
1.14,-1.891,-9.515,0.205
0.97,-1.745,-9.508,0.207
0.789,-1.817,-9.553,0.208
0.958,-1.962,-9.56,0.304
1.009,-1.836,-9.523,0.306
0.915,-1.677,-9.396,0.311
1.006,-1.642,-9.374,0.313
1.07,-1.845,-9.308,0.326
1.134,-2.049,-9.242,0.427
1.094,-1.958,-9.226,0.429
1.064,-2.004,-9.034,0.431
0.847,-2.179,-9.213,0.433
0.534,-2.549,-9.142,0.434
0.17,-3.045,-9.108,0.509
0.002,-3.447,-9.125,0.51
-0.304,-3.406,-8.851,0.515
-0.587,-2.93,-8.472,0.517
-1.126,-2.54,-8.257,0.519
-2.283,-1.524,-8.141,0.577
-2.948,-0.836,-7.588,0.579
-3.176,-0.159,-7.583,0.58
-2.942,-0.462,-7.92,0.588
-2.754,-0.455,-8.301,0.59
-1.052,2.348,-8.241,0.675
-1.296,2.604,-8.119,0.677
-1.711,2.989,-7.544,0.679
-1.396,3.804,-6.819,0.777
-1.519,4.181,-6.707,0.778
-1.904,4.896,-6.681,0.78
-2.407,5.593,-6.363,0.782
-2.804,6.096,-6.081,0.783
-0.676,9.173,-3.437,0.877
-1.359,9.822,-2.661,0.879
-2.12,10.239,-1.269,0.88
-2.833,11.002,0.649,0.882
-1.405,11.455,5.156,0.883
5.051,8.391,9.002,0.982
5.555,7.921,9.42,0.984
5.997,8.053,8.987,0.986
4.982,7.981,7.33,0.987
3.268,6.72,6.924,0.989
4.233,5.372,5.699,1.077
3.767,5.123,4.868,1.078
3.367,5.279,4.709,1.08
3.733,6.288,5.596,1.082
3.4,7.232,6.295,1.091
3.907,6.603,7.288,1.177
4.134,6.429,7.585,1.178
4.001,7.186,7.255,1.18
4.048,8.535,6.361,1.182
3.93,11.884,3.063,1.183
6.291,12.157,6.662,1.301
6.147,8.717,11.189,1.303
3.974,6.258,12.194,1.309
3.042,7.251,9.066,1.311
1.979,8.525,7.517,1.312
1.153,8.983,6.911,1.404
0.702,8.489,6.608,1.405
0.247,7.717,7.189,1.407
0.077,7.436,7.009,1.408
-0.06,7.762,5.958,1.41
0.019,7.987,5.475,1.416
-1.517,8.461,4.463,1.502
-1.481,8.606,4.079,1.503
-1.316,7.895,4.684,1.513
-1.134,7.722,5.026,1.52
-1.111,7.963,4.989,1.521
0.443,7.64,5.674,1.601
0.451,7.494,5.504,1.603
0.555,7.372,5.319,1.605
0.968,7.792,5.272,1.606
0.736,8.385,5.343,1.608
0.543,8.34,5.374,1.701
0.892,8.045,5.17,1.702
1.351,8.194,5.004,1.707
1.526,8.642,4.806,1.709
1.304,8.577,4.615,1.711
1.649,8.006,5.296,1.801
1.872,8.07,5.487,1.803
1.902,8.089,5.708,1.805
2.189,7.568,6.755,1.807
1.725,6.853,6.698,1.809
1.243,8.14,3.574,1.901
1.196,8.023,5.085,1.911
1.775,7.147,6.802,1.913
2.328,6.73,7.713,1.914
1.145,6.428,5.681,1.916
0.938,6.942,5.367,2.001
0.785,5.886,6.992,2.003
0.948,6.619,6.339,2.005
1.127,7.178,5.588,2.006
1.12,6.865,6.337,2.014
1.164,6.633,6.547,2.101
1.231,6.829,6.416,2.103
1.315,7.014,6.508,2.105
1.291,7.111,6.335,2.106
1.439,6.93,6.674,2.108
1.57,6.759,6.791,2.201
1.748,6.919,6.739,2.203
1.838,7.142,6.967,2.205
1.937,7.155,6.96,2.206
2.091,7.411,6.735,2.208
2.4,6.34,7.88,2.301
2.6,6.38,8.16,2.303
2.9,6.64,8.48,2.305
3.0,6.82,8.74,2.306
3.0,7.02,9.14,2.308
4.381,6.583,9.148,2.405
4.052,6.515,8.982,2.406
4.132,6.292,8.917,2.408
4.163,6.379,9.12,2.41
4.089,6.536,9.261,2.411
3.444,7.969,8.336,2.503
2.967,7.498,8.373,2.505
2.669,7.093,8.291,2.507
2.467,6.998,8.273,2.508
0.682,7.51,8.377,2.626
0.359,7.695,8.411,2.628
0.82,8.065,8.437,2.629
0.475,7.297,9.327,2.636
0.233,7.504,9.131,2.637
-0.16,7.242,8.826,2.703
0.345,6.722,8.704,2.704
0.525,6.301,8.291,2.706
0.613,6.049,7.763,2.712
0.824,5.505,7.755,2.713
1.176,4.995,7.945,2.715
1.305,4.58,8.278,2.719
1.248,4.706,7.947,2.799
1.496,4.669,7.235,2.8
1.756,4.426,6.818,2.802
2.017,4.14,6.643,2.901
1.994,4.095,6.511,2.903
2.09,3.864,6.346,2.904
2.077,3.655,6.268,2.906
2.021,3.729,5.95,2.908
1.278,5.189,4.878,3.001
1.179,5.33,4.979,3.007
0.96,5.543,5.06,3.009
0.692,5.969,5.192,3.01
0.254,6.395,5.354,3.02
0.104,7.46,4.672,3.101
-0.048,8.08,5.036,3.103
-0.84,8.7,5.38,3.104
-1.724,9.64,5.168,3.106
-2.292,10.22,5.344,3.108
-1.882,9.44,5.746,3.201
-1.107,9.062,5.027,3.203
-0.907,9.362,5.127,3.204
-1.224,9.914,5.706,3.211
-1.95,10.146,6.262,3.212
0.747,9.314,8.175,3.3
1.088,9.048,7.772,3.302
1.287,8.951,7.037,3.304
1.552,8.69,6.789,3.306
1.414,8.045,6.999,3.307
2.174,6.909,7.02,3.401
2.304,6.451,6.629,3.402
2.41,6.376,6.572,3.404
2.272,6.634,6.505,3.414
2.067,6.696,6.569,3.415
1.782,6.61,6.677,3.501
2.077,6.772,6.841,3.503
2.347,7.031,6.832,3.504
2.241,7.105,6.889,3.509
1.257,5.156,8.355,3.511
1.386,5.282,8.077,3.601
1.536,4.984,7.833,3.602
1.377,4.54,7.703,3.604
1.569,4.486,7.804,3.605
1.617,4.795,8.073,3.607
1.69,5.158,8.126,3.705
1.671,5.375,8.179,3.707
1.483,5.899,8.615,3.709
0.999,6.406,9.013,3.71
2.0,7.52,8.64,3.712
1.6,8.1,9.2,3.801
1.6,7.92,9.44,3.803
1.8,7.42,8.94,3.816
2.0,6.66,8.62,3.818
1.9,6.22,8.54,3.82
1.8,6.0,8.5,3.901
1.7,6.12,8.34,3.902
1.5,6.34,8.88,3.904
1.2,7.12,9.84,3.906
1.1,7.7,10.4,3.907
0.672,9.234,9.805,4.026
0.151,9.394,9.854,4.028
0.026,9.191,9.18,4.029
0.078,8.46,8.648,4.031
-0.179,8.575,7.083,4.033
-0.134,7.235,7.488,4.077
-0.1,6.7,7.2,4.079
-0.269,6.177,7.005,4.081
-0.131,5.923,6.695,4.082
-0.132,6.127,6.559,4.084
-0.421,6.183,6.351,4.089
-1.652,6.403,5.228,4.197
-1.451,6.001,5.009,4.199
-1.299,5.898,4.882,4.302
-0.978,5.756,4.751,4.304
-0.844,5.587,4.499,4.309
-0.87,5.74,4.422,4.311
-1.676,6.26,4.132,4.312
-1.832,6.42,4.124,4.314
-1.868,6.58,4.276,4.401
-1.772,6.92,4.204,4.403
-2.108,7.98,4.456,4.404
-2.996,9.16,5.372,4.406
-3.78,9.8,5.96,4.407
-2.516,10.589,5.169,4.501
-1.491,10.278,4.618,4.503
-0.778,10.444,3.944,4.504
-1.585,9.966,4.871,4.506
-1.972,9.75,5.193,4.507
0.125,9.101,7.491,4.601
0.128,9.389,7.998,4.611
0.513,9.449,7.863,4.612
0.818,9.429,7.242,4.614
1.035,8.761,7.048,4.616
2.311,7.464,7.079,4.701
2.349,6.906,6.646,4.706
2.173,6.622,6.512,4.708
2.186,6.573,6.599,4.709
2.384,6.598,6.585,4.711
2.253,6.769,6.468,4.801
2.144,6.968,6.71,4.802
2.137,7.055,6.76,4.804
2.147,7.131,7.032,4.806
2.338,7.242,7.067,4.807
2.5,5.84,7.88,4.906
2.6,5.44,7.58,4.908
2.9,5.14,7.48,4.909
3.0,5.08,7.56,4.912
3.1,5.38,7.66,4.913
3.3,5.92,7.94,5.006
3.2,6.4,8.3,5.008
2.9,7.06,8.42,5.01
2.3,7.9,8.8,5.011
1.9,8.6,9.2,5.013
1.7,8.62,9.84,5.101
1.9,8.24,9.68,5.102
2.1,7.74,9.18,5.104
1.9,7.0,9.0,5.106
1.6,6.66,8.62,5.107
0.926,8.391,7.68,5.201
0.638,9.242,7.967,5.202
0.184,9.598,7.885,5.204
0.067,9.596,7.669,5.206
0.002,9.275,7.614,5.211
-1.147,8.886,7.325,5.301
-0.91,8.34,6.944,5.302
-0.672,7.589,6.698,5.304
-0.609,7.136,6.679,5.305
-0.708,6.732,6.515,5.32
-1.157,6.971,5.586,5.401
-1.0,6.7,5.3,5.402
-0.857,6.671,4.986,5.404
-0.871,6.614,4.857,5.405
-0.929,6.486,4.843,5.407
-2.457,5.729,5.386,5.501
-2.531,5.665,5.41,5.508
-2.196,5.498,5.165,5.51
-1.89,5.145,4.763,5.511
-1.512,5.807,4.003,5.513
-1.082,6.856,3.536,5.605
-1.496,7.389,3.809,5.607
-1.487,7.467,3.927,5.608
-1.476,7.689,3.949,5.61
-1.658,8.744,4.284,5.612
-3.535,9.312,6.034,5.701
-4.008,10.071,6.502,5.702
-4.15,10.446,6.862,5.704
-3.604,10.236,6.601,5.713
-1.5,9.5,5.5,5.715
2.151,8.594,5.404,5.803
1.632,8.808,5.728,5.805
1.038,9.474,6.251,5.807
0.636,9.985,6.443,5.808
0.775,9.847,5.802,5.906
0.832,9.708,4.628,5.908
1.676,10.287,3.185,5.91
1.863,9.846,3.665,5.911
2.089,8.927,4.004,5.913
2.6,7.223,5.285,6.0
2.6,6.677,5.815,6.002
2.5,6.562,6.092,6.004
2.356,6.132,6.79,6.005
2.316,6.402,6.715,6.007
2.129,6.854,6.302,6.1
2.127,6.978,6.488,6.102
2.298,7.225,6.486,6.107
2.39,7.324,6.528,6.117
2.359,6.695,6.411,6.119
2.925,5.497,6.727,6.2
3.142,5.607,6.704,6.202
3.473,5.878,6.788,6.203
3.338,6.558,7.033,6.205
3.294,7.426,7.743,6.207
2.4,9.969,6.754,6.3
1.9,10.877,6.915,6.302
1.5,11.046,6.769,6.303
1.5,10.762,7.192,6.305
1.7,10.538,7.208,6.307
1.7,10.092,7.238,6.4
1.6,9.315,7.023,6.402
1.4,8.654,6.531,6.404
0.9,8.931,6.646,6.405
0.5,9.946,7.069,6.407
-1.128,10.47,7.187,6.502
-1.389,10.532,6.945,6.503
-1.402,9.911,6.592,6.513
-1.385,9.309,6.46,6.515
-1.183,8.698,6.168,6.516
-0.781,8.187,5.975,6.6
-2.93,8.187,4.572,6.602
-2.928,7.419,4.555,6.605
-2.749,6.966,4.442,6.606
-2.749,6.966,4.442,6.608
-2.24,7.1,4.82,6.7
-2.34,6.9,4.62,6.701
-2.278,6.644,4.444,6.703
-2.278,6.644,4.444,6.704
-2.196,6.689,4.409,6.706
-2.659,6.818,3.653,6.8
-2.377,6.653,3.502,6.807
-2.248,6.795,3.654,6.809
-2.617,7.135,3.849,6.81
-2.51,7.319,3.783,6.812
-2.51,7.319,3.783,6.9
-2.414,7.727,3.716,6.91
-2.782,8.963,3.993,6.911
-3.128,10.156,4.489,6.913
-3.119,10.739,4.465,6.915
-1.389,11.232,3.832,6.975
-0.418,10.226,3.346,6.977
0.697,9.111,2.491,6.979
1.143,9.089,2.129,6.98
1.353,10.035,1.365,6.982
0.637,11.014,1.386,7.123
0.231,11.643,1.557,7.125
0.267,11.867,0.933,7.126
1.689,11.708,-0.719,7.203
2.198,11.218,-1.12,7.21
2.531,10.394,-0.563,7.212
2.781,9.689,0.292,7.213
3.156,9.141,0.514,7.215
3.174,9.161,0.713,7.217
3.027,9.43,0.497,7.22
3.7,9.0,1.7,7.299
3.6,9.3,1.6,7.302
3.5,9.6,1.6,7.304
3.4,9.7,1.9,7.31
3.3,9.6,2.0,7.399
3.3,9.4,1.9,7.401
3.1,8.9,2.1,7.403
2.8,8.7,2.3,7.404
2.5,8.7,2.4,7.406
0.557,9.531,0.757,7.5
0.339,10.108,0.739,7.502
-0.114,10.837,0.686,7.507
-0.822,11.316,0.678,7.508
-1.235,11.853,0.665,7.51
-0.382,12.454,-0.899,7.6
-0.429,12.832,-1.019,7.601
-0.412,12.895,-0.83,7.603
-0.461,12.79,-0.474,7.605
-0.277,12.419,-0.052,7.606
-0.294,11.748,0.171,7.699
-0.806,12.052,0.329,7.701
-1.515,12.82,0.034,7.703
-1.466,12.925,-0.322,7.704
-1.531,12.349,-0.443,7.706
-2.319,11.575,-0.813,7.8
-2.421,11.183,-0.625,7.801
-2.33,10.521,-0.681,7.809
-2.06,9.642,-0.562,7.81
-0.973,9.309,-1.391,7.812
-1.763,9.111,-1.411,7.875
-1.821,9.437,-1.237,7.882
-2.298,9.739,-1.272,7.883
-2.412,9.93,-1.496,7.885
-2.56,10.088,-1.554,7.887
-4.109,9.257,-2.915,7.974
-3.968,9.061,-3.094,7.977
-3.688,8.659,-3.104,7.979
-3.282,8.191,-2.943,8.075
-3.026,8.071,-2.945,8.084
-3.059,8.004,-3.178,8.086
-3.047,7.863,-3.183,8.088
-3.094,7.932,-3.239,8.089
-3.35,6.865,-4.437,8.2
-2.994,6.315,-4.451,8.203
-2.925,6.333,-4.819,8.205
-3.332,6.849,-5.442,8.214
-3.043,6.519,-5.839,8.216
-2.734,5.611,-6.915,8.301
-2.394,5.498,-7.264,8.302
-1.892,4.964,-7.319,8.309
-1.27,4.357,-7.375,8.31
-1.392,4.164,-7.719,8.314
-1.424,3.216,-8.891,8.316
-1.269,3.817,-9.543,8.4
-1.708,4.227,-10.117,8.402
-1.803,4.126,-10.465,8.407
-1.442,3.835,-10.739,8.409
-0.985,3.646,-10.666,8.422
1.438,3.215,-10.446,8.5
1.715,3.346,-10.038,8.502
1.838,3.415,-10.046,8.504
1.746,3.538,-10.415,8.505
1.746,3.638,-10.815,8.507
4.436,2.109,-10.564,8.599
4.408,1.913,-10.592,8.601
4.292,1.787,-10.308,8.603
4.176,1.661,-10.024,8.604
4.045,1.436,-9.755,8.606
4.055,1.464,-9.245,8.7
3.811,1.856,-8.889,8.701
3.656,2.178,-8.844,8.703
3.584,2.374,-8.716,8.705
3.427,2.682,-8.573,8.706
2.479,3.797,-8.979,8.799
2.147,4.035,-9.547,8.801
1.618,4.245,-10.118,8.803
0.99,4.441,-10.69,8.816
0.363,4.623,-11.163,8.818
0.048,4.721,-11.448,8.899
0.02,4.917,-11.42,8.901
0.211,4.944,-10.711,8.903
0.486,5.098,-10.086,8.904
0.458,5.294,-10.058,8.906
0.8,6.56,-8.92,9.002
0.3,6.312,-8.784,9.005
-0.3,6.332,-9.924,9.007
-0.8,6.268,-10.776,9.013
-0.47,4.624,-11.77,9.018
-3.953,4.432,-11.09,9.076
-4.148,4.306,-10.636,9.078
-3.839,4.167,-9.904,9.079
-3.107,4.063,-9.18,9.081
-2.29,2.984,-9.216,9.083
-2.116,3.045,-9.055,9.202
-2.337,3.22,-8.88,9.205
-2.347,3.335,-8.665,9.221
-2.457,3.051,-8.749,9.222
-2.591,1.783,-9.314,9.32
-2.58,1.56,-9.3,9.321
-2.401,1.235,-8.91,9.323
-2.078,1.19,-8.481,9.324
-1.697,1.094,-8.171,9.33
-1.463,1.026,-8.029,9.331
-2.814,0.319,-7.954,9.399
-2.984,0.349,-8.096,9.401
-2.91,0.357,-8.253,9.403
-2.855,0.145,-8.364,9.404
-2.479,-0.279,-8.27,9.406
-0.759,-3.76,-8.531,9.474
-1.168,-4.254,-9.67,9.476
-1.302,-4.465,-9.864,9.477
-1.305,-4.663,-10.111,9.479
-1.142,-4.972,-10.351,9.481
-0.123,-3.538,-10.089,9.576
0.496,-3.498,-9.262,9.586
0.651,-3.626,-9.36,9.588
0.435,-4.732,-9.385,9.676
-0.054,-4.842,-9.914,9.677
-0.333,-5.016,-10.093,9.679
-0.307,-5.284,-9.927,9.681
-0.047,-5.484,-9.747,9.682
0.274,-5.258,-9.126,9.774
0.708,-4.689,-8.512,9.776
1.008,-4.089,-8.612,9.777
1.126,-4.042,-8.674,9.779
1.294,-4.158,-8.766,9.781
3.0,-3.162,-8.868,9.874
3.0,-3.3,-8.9,9.876
2.9,-3.458,-9.155,9.878
2.8,-3.458,-9.155,9.879
2.8,-3.183,-9.091,9.881
3.0,-2.992,-8.974,9.974
3.1,-2.834,-8.719,9.976
3.0,-2.76,-8.411,9.989
2.9,-2.485,-8.347,9.992
2.9,-2.4,-8.4,9.994
2.8,-2.802,-8.857,10.1
2.7,-3.415,-9.653,10.102
2.3,-3.923,-10.279,10.105
1.7,-3.985,-10.947,10.107
1.1,-4.323,-11.679,10.108
1.0,-4.343,-11.902,10.2
1.2,-4.015,-11.753,10.202
1.3,-3.666,-11.381,10.204
1.2,-3.232,-11.062,10.205
1.2,-2.766,-10.881,10.207
1.4,-2.417,-10.509,10.209
-0.555,-4.496,-10.02,10.299
-1.441,-5.667,-10.663,10.301
-1.953,-5.978,-11.212,10.302
-2.008,-6.173,-11.433,10.304
-2.408,-6.673,-11.433,10.306
-3.067,-7.627,-10.113,10.399
-2.757,-7.006,-9.531,10.401
-2.505,-6.57,-8.721,10.402
-2.048,-6.145,-8.13,10.409
-1.824,-5.452,-7.905,10.41
-2.149,-4.819,-8.057,10.499
-2.159,-4.647,-8.074,10.501
-2.143,-4.395,-7.884,10.502
-2.051,-4.181,-7.543,10.504
-2.018,-4.114,-7.477,10.505
-2.99,-5.345,-6.063,10.574
-3.09,-5.345,-5.763,10.576
-2.831,-5.065,-5.41,10.577
-2.496,-4.898,-5.165,10.579
-2.443,-5.171,-5.214,10.581
-2.702,-5.451,-5.567,10.703
-2.796,-5.598,-5.665,10.704
-2.682,-5.241,-5.494,10.706
-2.527,-5.763,-5.676,10.708
-3.155,-6.978,-6.518,10.801
-3.784,-8.192,-7.361,10.802
-4.259,-8.58,-7.753,10.804
-3.761,-8.231,-7.12,10.806
-2.247,-7.873,-6.249,10.807
-1.569,-8.135,-5.69,10.813
-0.618,-8.991,-5.822,10.874
-1.376,-9.462,-6.144,10.876
-1.807,-9.647,-6.133,10.879
-1.747,-9.727,-6.033,10.887
-1.656,-9.922,-5.744,10.889
1.036,-10.485,-4.443,10.978
1.474,-9.958,-3.794,10.981
1.758,-9.149,-3.734,10.983
2.081,-8.613,-4.325,10.988
2.867,-7.796,-5.569,11.074
2.952,-7.981,-5.661,11.075
2.877,-7.872,-5.841,11.077
2.897,-7.737,-5.878,11.079
2.978,-7.76,-5.648,11.174
2.885,-7.786,-5.792,11.176
3.001,-7.788,-6.007,11.178
3.213,-7.639,-5.894,11.179
3.354,-7.257,-5.775,11.182
3.5,-7.354,-5.231,11.3
3.3,-7.446,-5.269,11.301
3.4,-7.315,-5.323,11.303
3.3,-7.815,-5.423,11.304
2.9,-8.592,-5.638,11.306
2.4,-9.146,-5.869,11.401
1.7,-9.715,-6.323,11.415
1.0,-10.585,-6.577,11.418
0.9,-10.769,-6.654,11.42
1.0,-10.469,-6.854,11.429
1.0,-9.931,-6.846,11.431
1.4,-9.038,-6.908,11.433
1.135,-7.679,-7.945,11.499
1.018,-6.99,-7.923,11.501
0.62,-7.065,-8.137,11.514
0.12,-8.065,-8.537,11.516
-0.119,-9.123,-8.47,11.518
-1.172,-10.23,-7.213,11.598
-1.038,-9.726,-6.649,11.6
-0.742,-9.449,-6.134,11.602
-2.358,-9.547,-5.342,11.603
-3.522,-8.596,-5.755,11.701
-3.027,-7.941,-5.632,11.702
-2.856,-7.608,-5.489,11.704
-2.736,-7.421,-5.509,11.711
-2.681,-7.431,-5.27,11.713
-2.577,-7.295,-4.869,11.775
-2.443,-6.983,-4.636,11.777
-2.279,-6.713,-4.62,11.778
-2.355,-6.599,-4.514,11.782
-2.553,-6.553,-3.716,11.784
-1.737,-6.774,-2.914,11.898
-1.335,-6.57,-2.697,11.905
-1.427,-6.654,-2.631,11.915
-1.721,-7.043,-2.782,11.917
-2.088,-6.78,-3.816,11.986
-2.048,-7.08,-4.036,11.994
-2.164,-7.54,-4.248,11.996
-2.636,-8.46,-4.352,11.998
-3.268,-9.38,-5.076,12.0
-3.5,-9.8,-5.5,12.002
-3.536,-10.121,-6.109,12.085
-3.172,-10.15,-6.193,12.086
-1.906,-9.553,-5.451,12.088
-1.559,-9.635,-5.115,12.094
-1.457,-10.738,-4.209,12.178
-1.97,-11.313,-4.628,12.18
-2.011,-11.108,-4.502,12.182
-1.689,-10.392,-3.898,12.183
-1.37,-9.913,-3.228,12.185
-0.387,-9.104,-3.953,12.284
-0.245,-8.652,-3.795,12.286
0.066,-8.122,-4.326,12.296
0.285,-8.128,-4.505,12.298
0.244,-8.315,-4.884,12.299
0.818,-8.724,-4.482,12.404
0.9,-8.8,-4.7,12.405
0.824,-9.165,-4.876,12.407
0.645,-9.549,-4.855,12.409
0.835,-9.647,-4.565,12.41
2.9,-7.992,-6.038,12.502
3.0,-7.623,-5.885,12.504
3.1,-7.292,-5.638,12.505
3.0,-7.2,-5.6,12.507
3.1,-7.2,-5.6,12.509
3.1,-7.846,-5.869,12.577
2.9,-8.677,-6.215,12.579
2.6,-9.531,-6.246,12.581
2.0,-10.438,-6.408,12.586
1.4,-11.046,-6.769,12.591
-0.438,-11.601,-6.214,12.675
-0.303,-11.326,-6.135,12.689
-0.052,-10.713,-6.168,12.691
0.101,-10.091,-6.188,12.693
0.088,-9.295,-6.03,12.694
-1.321,-8.726,-5.779,12.778
-1.914,-9.262,-5.926,12.78
-2.383,-9.739,-6.037,12.783
-2.498,-10.067,-5.942,12.785
-2.92,-10.06,-5.9,12.791
-3.666,-9.877,-4.594,12.898
-3.415,-9.243,-4.436,12.9
-3.074,-8.649,-4.262,12.901
-2.636,-8.391,-4.223,12.903
-2.124,-8.947,-3.527,13.006
-2.132,-8.405,-3.605,13.008
-1.961,-7.837,-3.517,13.01
-1.752,-7.805,-3.445,13.012
-1.808,-7.995,-3.475,13.015
-1.934,-7.879,-3.299,13.017
-1.823,-7.411,-3.131,13.027
-2.513,-6.825,-3.457,13.099
-2.322,-6.745,-3.24,13.102
-2.132,-6.664,-3.022,13.104
-2.322,-6.745,-3.24,13.109
-2.508,-6.916,-3.566,13.11
-2.395,-7.19,-3.609,13.198
-2.494,-7.588,-3.65,13.2
-2.517,-8.035,-3.649,13.201
-2.716,-8.831,-3.732,13.207
-2.6,-10.4,-2.8,13.299
-2.567,-11.267,-2.933,13.3
-2.459,-11.648,-2.752,13.302
-1.541,-10.852,-2.448,13.304
-0.356,-10.289,-1.911,13.305
0.687,-10.242,-2.662,13.399
0.335,-10.884,-2.604,13.4
-0.441,-11.637,-2.377,13.402
-0.92,-11.8,-2.44,13.404
-1.199,-11.663,-2.103,13.413
1.195,-11.554,0.759,13.499
1.644,-10.659,1.114,13.501
1.868,-9.815,0.647,13.503
2.288,-9.317,-0.071,13.504
2.326,-9.139,-0.287,13.506
2.372,-9.079,-0.693,13.576
2.309,-9.11,-1.099,13.578
2.307,-9.328,-1.279,13.584
2.088,-9.617,-1.371,13.586
2.098,-9.518,-1.38,13.588
3.0,-9.2,-2.5,13.672
2.9,-9.2,-2.4,13.673
2.9,-8.9,-2.4,13.675
2.8,-8.6,-2.3,13.677
2.8,-8.7,-2.2,13.799
2.7,-8.9,-2.3,13.8
2.6,-9.6,-2.3,13.803
2.4,-10.6,-2.2,13.804
2.0,-11.5,-2.3,13.814
-1.147,-12.371,-0.053,13.901
-1.437,-12.773,0.237,13.902
-1.437,-12.773,0.237,13.904
-1.382,-12.524,-0.018,13.906
-1.247,-12.371,-0.153,13.911
-1.055,-11.949,-0.445,13.912
0.587,-11.126,-1.861,13.998
0.477,-10.325,-2.052,14.004
-0.739,-10.296,-3.104,14.005
-1.514,-11.369,-2.931,14.007
-3.378,-11.48,-1.347,14.009
-3.3,-11.0,0.8,14.099
-3.221,-10.522,0.642,14.101
-3.2,-10.1,0.6,14.103
-2.905,-9.58,0.486,14.104
-2.62,-9.186,0.305,14.106
-2.515,-8.741,0.057,14.198
-2.364,-8.537,-0.199,14.2
-2.43,-8.546,-0.324,14.21
-2.579,-8.578,-0.242,14.211
-2.729,-8.61,-0.161,14.213
-2.979,-8.504,1.338,14.302
-3.14,-8.52,1.4,14.304
-3.256,-8.635,1.552,14.306
-3.139,-8.384,1.438,14.308
-2.615,-7.979,1.29,14.309
-2.371,-8.114,1.243,14.398
-2.529,-8.586,1.357,14.4
-2.69,-8.738,1.381,14.403
-2.528,-8.45,1.395,14.406
-2.275,-8.359,1.59,14.408
-2.291,-9.174,2.143,14.499
-2.6,-10.3,2.5,14.5
-2.428,-10.65,2.695,14.502
-2.265,-10.361,2.71,14.508
-1.611,-9.934,2.743,14.51
1.216,-9.254,3.38,14.6
1.759,-8.857,3.677,14.613
1.723,-8.971,4.096,14.622
1.387,-9.525,4.441,14.624
1.077,-10.129,4.704,14.626
1.336,-9.484,6.533,14.7
1.523,-9.16,6.797,14.703
1.774,-8.457,6.741,14.709
2.067,-7.798,6.329,14.71
2.259,-7.545,5.73,14.712
2.524,-7.654,5.184,14.773
2.741,-7.655,5.07,14.775
2.988,-7.77,5.451,14.777
2.864,-7.916,5.567,14.778
2.566,-8.104,5.442,14.78
2.918,-7.073,6.635,14.874
2.902,-7.208,6.782,14.876
3.909,-6.926,6.655,14.878
3.714,-6.789,6.132,14.979
3.324,-6.741,5.678,14.98
3.147,-6.856,5.466,14.993
3.065,-7.008,5.476,14.995
3.005,-7.363,5.577,14.997
1.655,-8.42,5.804,15.074
1.118,-9.073,6.235,15.076
0.369,-9.878,6.776,15.077
-0.496,-10.616,7.363,15.082
-0.845,-10.42,7.504,15.084
-1.033,-10.369,7.394,15.173
-1.247,-10.412,6.922,15.175
-1.008,-10.367,6.173,15.177
-1.01,-11.359,4.992,15.178
-1.282,-12.073,4.035,15.18
-0.986,-11.357,3.771,15.282
-1.359,-10.363,4.233,15.283
-2.302,-10.392,4.918,15.285
-2.304,-10.084,5.337,15.287
-1.79,-9.841,5.208,15.291
0.094,-7.817,7.734,15.398
0.172,-7.34,7.081,15.411
0.621,-6.777,6.153,15.413
0.83,-6.187,5.674,15.423
0.762,-6.002,5.204,15.426
0.136,-4.855,5.755,15.517
0.327,-4.451,5.611,15.52
0.436,-4.275,5.695,15.522
0.555,-4.002,5.922,15.523
0.527,-3.971,6.251,15.525
0.245,-4.018,6.718,15.527
-0.419,-2.048,7.726,15.602
-0.441,-1.926,7.937,15.603
-0.622,-1.878,8.411,15.613
-0.911,-1.889,8.956,15.616
-1.204,-2.03,9.385,15.619
-1.23,-2.137,9.681,15.697
-1.178,-2.422,10.089,15.7
-1.396,-2.87,10.515,15.702
-1.419,-2.948,11.126,15.709
-1.519,-3.148,12.226,15.718
-2.524,-3.518,13.082,15.799
-2.384,-3.655,13.845,15.803
-1.263,-3.28,12.62,15.807
0.557,-2.849,10.451,15.809
1.419,-4.385,8.611,15.816
3.035,-4.346,8.919,15.904
3.191,-4.239,9.87,15.907
3.547,-3.532,10.321,15.909
3.033,-3.033,10.633,15.912
2.005,-2.737,11.158,15.914
2.988,-0.33,10.988,16.003
3.121,-1.297,10.521,16.004
3.394,-2.515,10.294,16.006
3.879,-3.103,9.979,16.008
4.153,-2.935,9.453,16.009
1.692,-3.035,9.623,16.073
1.638,-3.16,9.517,16.075
1.069,-2.922,9.526,16.076
0.549,-3.075,9.598,16.086
0.128,-3.829,9.67,16.092
-0.285,0.635,10.764,16.196
-0.618,1.282,10.745,16.198
-0.762,1.378,10.755,16.199
0.653,2.284,10.647,16.3
0.797,2.479,10.683,16.302
0.987,2.516,10.833,16.303
1.085,2.468,11.255,16.308
1.139,2.526,11.841,16.31
0.838,2.753,12.102,16.312
0.722,3.147,11.818,16.313
-4.124,8.605,7.281,16.398
-3.933,8.847,7.093,16.4
-3.881,9.256,6.555,16.407
-3.217,10.509,5.97,16.409
-3.117,10.309,7.17,16.41
-5.781,10.189,-1.026,16.473
-4.174,9.913,-3.393,16.475
-4.146,8.18,-2.758,16.485
-2.842,7.968,-3.377,16.487
-1.142,8.168,-5.677,16.499
-0.947,5.304,-8.858,16.571
-2.865,4.869,-6.706,16.576
-1.506,4.188,-6.873,16.578
-1.039,4.823,-6.676,16.673
-1.135,4.631,-6.794,16.675
-0.768,4.263,-7.343,16.68
-0.336,3.629,-7.34,16.681
-0.274,3.451,-7.016,16.683
-0.337,3.002,-6.985,16.874
0.258,3.005,-7.963,16.875
0.663,2.922,-8.545,16.877
0.737,3.238,-7.835,16.879
0.947,3.312,-7.819,16.88
1.2,3.38,-8.34,16.927
1.079,3.733,-8.372,16.928
1.142,3.995,-8.537,16.93
1.116,4.111,-8.726,16.94
1.263,4.062,-8.565,16.941
1.568,3.899,-8.707,16.943
1.568,3.759,-8.687,17.019
1.447,3.972,-8.699,17.021
1.511,3.814,-8.804,17.026
1.758,3.145,-8.983,17.028
-0.174,2.922,-9.257,17.101
-0.291,3.174,-8.952,17.104
-0.317,3.652,-9.096,17.107
-0.361,3.483,-9.235,17.109
-0.174,3.122,-9.357,17.118
-0.148,2.843,-9.313,17.12
-0.252,3.357,-9.187,17.198
-0.239,3.617,-9.365,17.201
-0.13,3.691,-9.417,17.204
0.004,3.287,-9.326,17.206
0.004,3.287,-9.326,17.208
-0.022,3.365,-9.27,17.299
0.196,3.513,-9.374,17.309
0.196,3.513,-9.374,17.311
-0.004,3.413,-8.974,17.312
0.17,3.191,-9.117,17.315
0.196,3.313,-9.274,17.406
0.126,3.422,-9.457,17.408
0.074,3.378,-9.243,17.409
0.387,3.339,-9.222,17.411
0.035,3.396,-9.109,17.413
0.03,3.209,-9.383,17.473
0.143,3.47,-9.161,17.475
0.17,3.191,-9.117,17.476
0.304,3.187,-9.226,17.478
0.252,3.343,-9.113,17.48
0.209,3.374,-9.352,17.58
0.222,3.235,-9.33,17.582
0.157,3.33,-9.139,17.584
0.265,3.404,-9.191,17.585
0.304,3.387,-9.326,17.704
0.13,3.409,-9.083,17.714
0.239,3.283,-9.035,17.716
0.143,3.27,-9.061,17.718
