gyro_time_list,gyro_x_list,gyro_y_list,gyro_z_list
0.0,0.3,-0.1,0.0
0.002,0.3,0.0,0.0
0.004,0.1,0.0,0.0
0.104,-0.2,0.1,0.0
0.106,-0.1,0.1,0.0
0.107,-0.2,-0.1,0.0
0.109,-0.1,-0.0,-0.0
0.114,-0.1,-0.1,0.0
0.228,-0.0,-0.1,0.0
0.23,-0.0,-0.0,0.0
0.232,-0.1,0.0,0.0
0.234,-0.0,0.0,0.0
0.235,0.0,0.0,0.0
0.315,0.1,-0.0,0.0
0.324,0.0,-0.1,-0.0
0.326,-0.0,-0.1,-0.0
0.328,-0.1,-0.0,-0.0
0.329,-0.1,-0.0,-0.0
0.331,-0.0,0.0,-0.0
0.421,0.0,0.0,-0.0
0.422,0.0,0.0,-0.0
0.424,0.0,0.0,-0.0
0.425,0.0,0.0,-0.0
0.53,0.0,-0.0,-0.0
0.535,0.1,-0.0,-0.0
0.537,0.0,0.0,-0.0
0.539,0.0,0.0,0.0
0.544,0.0,0.0,0.0
0.545,-0.0,0.0,-0.0
0.624,-0.0,0.0,-0.0
0.629,-0.0,-0.0,-0.0
0.631,-0.1,-0.0,-0.0
0.632,-0.2,-0.0,-0.0
0.634,-0.2,0.0,-0.0
0.737,-0.2,0.0,-0.1
0.747,-0.1,0.1,-0.0
0.748,-0.0,0.1,0.0
0.75,0.0,0.1,0.0
0.762,0.1,0.1,0.0
0.824,0.0,0.0,-0.0
0.826,-0.0,-0.0,-0.0
0.827,-0.1,-0.0,-0.0
0.832,-0.1,-0.0,-0.0
0.834,-0.1,0.0,-0.0
0.928,-0.1,0.0,-0.0
0.93,-0.0,0.0,0.0
0.934,-0.0,0.0,0.0
0.937,0.0,0.0,0.0
0.939,0.0,0.0,0.0
1.028,0.0,0.0,-0.0
1.03,0.0,0.0,-0.0
1.031,-0.0,0.0,-0.0
1.033,-0.0,0.0,-0.0
1.034,-0.0,0.0,0.0
1.144,0.0,0.0,0.0
1.145,0.0,0.0,0.0
1.147,-0.0,0.0,0.0
1.161,-0.0,0.0,0.0
1.163,-0.0,0.0,0.0
1.231,0.0,0.1,0.0
1.232,0.1,0.1,0.1
1.234,0.2,0.2,0.1
1.236,0.3,0.2,0.1
1.237,0.4,0.2,0.1
1.306,0.4,0.1,0.1
1.308,0.3,0.1,0.1
1.309,0.1,0.1,0.1
1.311,-0.0,0.1,0.0
1.312,0.0,0.1,0.0
1.424,0.1,0.1,0.1
1.426,0.2,0.1,0.1
1.428,0.2,0.1,0.1
1.538,0.1,0.0,0.1
1.544,-0.0,-0.0,0.1
1.546,-0.1,-0.1,0.0
1.547,-0.2,-0.2,0.0
1.558,-0.3,-0.1,0.0
1.56,-0.2,-0.1,0.0
1.562,-0.2,-0.1,0.1
1.625,-0.2,-0.0,0.1
1.628,-0.2,-0.1,0.1
1.63,-0.3,-0.1,0.0
1.632,-0.4,-0.1,-0.0
1.633,-0.3,-0.1,-0.0
1.728,-0.3,-0.1,-0.0
1.73,-0.3,0.0,-0.1
1.732,-0.2,0.2,-0.1
1.733,-0.1,0.3,-0.0
1.735,0.0,0.4,-0.0
1.827,0.2,0.5,-0.0
1.828,0.3,0.5,-0.0
1.83,0.2,0.4,-0.1
1.832,0.1,0.4,-0.1
1.933,-0.0,0.3,-0.1
1.935,-0.1,0.2,-0.1
1.946,-0.2,0.2,-0.1
1.956,-0.1,0.1,-0.1
1.958,-0.2,0.1,-0.0
2.029,-0.2,0.1,-0.0
2.032,-0.2,0.1,0.0
2.033,-0.2,0.1,0.0
2.035,-0.0,0.2,0.1
2.037,0.1,0.2,0.2
2.128,0.3,0.1,0.2
2.129,0.3,0.1,0.1
2.131,0.3,0.0,0.0
2.133,0.3,-0.0,-0.0
2.134,0.4,-0.0,-0.1
2.252,0.5,-0.1,-0.1
2.255,0.6,-0.1,-0.2
2.257,0.7,-0.1,-0.3
2.258,0.7,-0.1,-0.3
2.267,0.7,-0.1,-0.4
2.337,0.6,-0.1,-0.4
2.355,0.6,-0.1,-0.4
2.357,0.5,0.0,-0.4
2.363,0.4,0.1,-0.3
2.365,0.1,0.2,-0.3
2.421,-0.1,0.3,-0.2
2.423,-0.2,0.4,-0.1
2.425,-0.1,0.4,-0.1
2.426,0.2,0.4,0.1
2.537,0.5,0.2,0.1
2.539,0.8,0.1,0.2
2.541,0.9,-0.1,0.1
2.542,0.6,-0.2,0.0
2.544,0.1,-0.3,0.0
2.546,-0.4,-0.3,0.1
2.64,-0.5,-0.1,0.1
2.642,-0.2,-0.2,0.2
2.644,0.3,-0.3,0.4
2.645,0.7,-0.5,0.4
2.647,0.7,-0.7,0.4
2.725,0.3,-0.7,0.4
2.726,-0.2,-0.8,0.3
2.728,-0.8,-0.8,0.2
2.729,-1.1,-0.8,0.1
2.731,-1.1,-0.6,-0.0
2.826,-0.8,-0.5,-0.1
2.828,-0.5,-0.5,-0.2
2.829,-0.3,-0.4,-0.3
2.831,-0.2,-0.5,-0.3
2.833,-0.2,-0.6,-0.2
2.927,-0.3,-0.6,-0.2
2.929,-0.4,-0.6,-0.3
2.93,-0.5,-0.5,-0.3
2.932,-0.8,-0.3,-0.2
2.934,-1.1,-0.0,-0.2
3.039,-1.3,0.2,-0.1
3.04,-1.2,0.4,0.1
3.042,-0.9,0.7,0.2
3.044,-0.1,1.0,0.2
3.054,0.6,1.1,0.2
3.124,0.9,1.1,0.0
3.126,0.9,0.9,-0.1
3.132,0.4,0.9,-0.1
3.134,-0.3,0.9,-0.1
3.136,-0.8,0.9,-0.2
3.242,-1.0,0.7,-0.2
3.243,-0.7,0.6,-0.2
3.245,-0.2,0.5,-0.1
3.247,0.1,0.3,-0.1
3.249,0.1,0.3,0.1
3.323,-0.2,0.0,0.3
3.325,-0.4,-0.1,0.4
3.331,-0.3,-0.3,0.5
3.332,-0.1,-0.5,0.4
3.334,0.2,-0.5,0.2
3.443,0.5,-0.4,0.0
3.445,1.0,-0.3,-0.1
3.447,1.3,-0.2,-0.2
3.458,1.5,-0.0,-0.0
3.459,1.4,-0.0,0.2
3.525,1.3,0.0,0.4
3.53,1.3,0.1,0.5
3.532,1.5,-0.1,0.5
3.533,1.5,-0.3,0.4
3.629,1.2,-0.4,0.2
3.63,0.7,-0.5,0.1
3.632,-0.1,-0.6,-0.2
3.637,-1.0,-0.7,-0.4
3.639,-1.7,-0.7,-0.7
3.723,-2.1,-0.6,-0.9
3.724,-2.0,-0.5,-1.0
3.726,-1.4,-0.5,-0.8
3.727,-0.5,-0.5,-0.5
3.729,0.5,-0.5,-0.2
3.835,1.3,-0.5,0.1
3.836,1.7,-0.5,0.3
3.838,1.3,-0.5,0.3
3.85,0.0,-0.5,0.2
3.851,-1.4,-0.6,0.1
3.922,-2.3,-0.5,-0.1
3.933,-2.6,-0.5,-0.2
3.935,-2.2,-0.3,-0.1
3.937,-1.5,-0.2,0.0
3.938,-0.6,-0.1,0.2
4.026,0.1,0.1,0.3
4.027,0.4,0.3,0.4
4.029,0.5,0.3,0.4
4.031,0.2,0.4,0.4
4.034,-0.2,0.6,0.4
4.127,-0.3,0.8,0.5
4.128,0.1,0.8,0.6
4.13,0.6,0.9,0.7
4.131,1.2,0.9,0.7
4.133,1.7,0.9,0.6
4.251,1.7,0.8,0.5
4.252,1.4,0.7,0.3
4.266,0.8,0.6,0.1
4.268,0.2,0.6,0.0
4.27,-0.1,0.5,-0.1
4.332,-0.2,0.5,-0.1
4.334,0.0,0.6,-0.0
4.336,0.3,0.7,0.0
4.337,0.3,0.8,0.1
4.339,0.3,0.8,0.1
4.402,0.3,0.7,0.1
4.404,0.3,0.7,0.1
4.406,0.4,0.5,-0.0
4.407,0.4,0.4,-0.1
4.409,0.3,0.3,-0.3
4.524,0.2,0.3,-0.4
4.525,0.2,0.4,-0.3
4.527,0.4,0.4,-0.1
4.529,0.7,0.3,0.0
4.643,1.0,0.2,0.2
4.645,1.2,-0.2,0.2
4.655,1.3,-0.5,0.1
4.661,1.2,-0.9,-0.1
4.663,0.8,-1.3,-0.3
4.665,0.2,-1.4,-0.4
4.725,-0.5,-1.0,-0.4
4.73,-1.6,-0.7,-0.5
4.732,-2.6,-0.8,-0.4
4.734,-3.2,-0.8,-0.4
4.735,-2.9,-0.7,-0.1
4.797,-1.8,-1.1,-0.0
4.799,-0.7,-1.2,-0.1
4.8,0.2,-1.3,-0.1
4.802,0.5,-1.3,-0.1
4.808,0.2,-1.4,-0.1
4.92,-0.4,-1.4,-0.2
4.921,-1.0,-1.2,-0.4
4.923,-1.4,-1.0,-0.5
5.04,-1.4,-0.7,-0.5
5.041,-1.0,-0.4,-0.5
5.057,-0.1,-0.4,-0.3
5.058,0.8,-0.3,-0.1
5.06,1.5,-0.2,0.1
5.061,1.6,-0.2,0.2
5.126,1.2,-0.1,0.3
5.134,0.6,0.2,0.3
5.136,0.3,0.4,0.3
5.138,0.2,0.6,0.2
5.139,0.2,0.7,0.1
5.141,0.3,0.8,-0.0
5.228,0.2,0.8,-0.0
5.233,-0.1,0.8,0.0
5.234,-0.3,0.8,0.2
5.236,-0.3,0.8,0.5
5.333,0.1,0.7,0.5
5.335,0.6,0.9,0.5
5.336,1.0,1.0,0.3
5.339,1.0,1.1,0.1
5.34,0.5,1.0,-0.1
5.427,-0.1,0.9,-0.2
5.428,-0.7,0.8,-0.1
5.43,-0.8,0.6,0.0
5.431,-0.8,0.6,0.1
5.433,-0.4,0.7,0.1
5.527,0.0,0.8,0.1
5.528,0.4,1.0,0.1
5.53,0.8,1.0,0.0
5.532,1.2,0.9,0.1
5.533,1.5,0.7,-0.0
5.623,1.3,0.5,-0.1
5.629,0.7,0.3,-0.1
5.63,0.1,0.0,0.0
5.632,-0.4,-0.3,0.1
5.634,-0.5,-0.6,0.2
5.738,-0.2,-0.8,0.2
5.74,0.1,-0.8,0.1
5.742,0.5,-0.8,0.0
5.743,0.6,-0.7,-0.1
5.761,0.6,-0.6,-0.3
5.822,0.4,-0.5,-0.2
5.824,-0.1,-0.5,-0.1
5.825,-0.5,-0.4,0.0
5.827,-0.6,-0.3,0.3
5.828,-0.4,-0.4,0.5
5.92,0.0,-0.5,0.5
5.922,0.5,-0.6,0.5
5.923,0.5,-0.9,0.3
5.925,-0.0,-1.1,0.1
5.926,-0.6,-1.2,-0.1
6.027,-1.1,-1.3,-0.4
6.028,-1.3,-1.3,-0.5
6.03,-1.4,-1.2,-0.6
6.032,-1.2,-1.1,-0.6
6.033,-0.7,-0.9,-0.5
6.134,-0.2,-0.8,-0.3
6.136,0.3,-0.7,-0.1
6.137,0.5,-0.6,0.0
6.147,0.3,-0.6,0.1
6.148,-0.3,-0.4,0.1
6.228,-0.9,-0.2,-0.0
6.23,-1.1,0.2,-0.1
6.232,-0.7,0.4,-0.1
6.234,-0.2,0.4,-0.2
6.243,0.2,0.4,-0.2
6.297,0.3,0.5,-0.2
6.299,0.3,0.7,-0.1
6.3,0.2,0.8,0.2
6.302,0.2,0.9,0.3
6.308,0.3,1.0,0.5
6.418,0.8,1.1,0.6
6.42,1.2,1.2,0.5
6.423,1.4,1.3,0.3
6.537,1.4,1.2,0.2
6.538,1.1,1.1,0.1
6.54,0.4,0.9,0.0
6.548,-0.4,0.8,0.0
6.562,-0.8,0.7,0.1
6.564,-0.8,0.7,0.1
6.566,-0.4,0.8,0.2
6.625,0.0,0.9,0.2
6.627,0.4,0.9,0.3
6.628,0.8,0.9,0.4
6.63,1.1,0.9,0.3
6.632,1.2,0.8,0.3
6.726,1.0,0.9,0.2
6.727,0.8,0.6,0.2
6.73,0.9,0.2,0.2
6.732,1.2,-0.2,0.3
6.826,1.5,-0.6,0.2
6.828,1.5,-1.0,0.1
6.831,1.0,-1.3,-0.0
6.833,0.3,-1.4,-0.2
6.835,-0.6,-1.4,-0.4
6.936,-1.5,-1.2,-0.5
6.938,-2.3,-0.9,-0.6
6.947,-2.8,-0.6,-0.5
6.959,-2.7,-0.4,-0.3
6.961,-1.7,-0.4,-0.0
7.031,-0.3,-0.5,0.1
7.033,0.8,-0.5,0.1
7.038,1.3,-0.6,0.0
7.04,1.2,-0.8,-0.1
7.041,0.8,-0.9,-0.2
7.127,0.3,-0.9,-0.3
7.129,0.0,-0.8,-0.5
7.131,-0.0,-0.7,-0.5
7.133,0.1,-0.6,-0.4
7.138,0.2,-0.4,-0.2
7.248,0.4,-0.3,0.0
7.25,0.6,-0.2,0.3
7.252,0.7,-0.1,0.6
7.253,0.5,-0.1,0.7
7.256,0.1,-0.1,0.6
7.301,-0.4,0.1,0.5
7.311,-0.6,0.3,0.2
7.313,-0.6,0.6,-0.1
7.315,-0.3,0.7,-0.2
7.317,-0.1,0.7,-0.3
7.42,-0.0,0.9,-0.3
7.422,-0.0,1.1,-0.2
7.423,-0.0,1.0,-0.0
7.425,-0.1,1.0,0.1
7.525,-0.0,0.9,0.1
7.526,0.3,0.9,0.1
7.528,0.4,0.8,0.0
7.529,0.2,0.6,-0.1
7.531,-0.2,0.3,-0.1
7.539,-0.9,0.1,-0.1
7.64,-1.6,-0.0,-0.1
7.641,-2.2,-0.1,-0.2
7.643,-2.4,0.1,-0.2
7.645,-2.1,0.2,-0.1
7.646,-1.3,0.3,0.1
7.726,-0.4,0.4,0.2
7.728,0.5,0.4,0.3
7.73,1.2,0.3,0.4
7.732,1.4,0.3,0.4
7.734,1.3,0.3,0.4
7.822,1.2,0.2,0.5
7.823,1.1,0.1,0.5
7.825,1.0,-0.0,0.4
7.832,0.9,-0.1,0.2
7.834,0.7,-0.2,-0.0
7.921,0.5,-0.4,-0.2
7.923,0.4,-0.5,-0.4
7.925,0.1,-0.6,-0.3
7.926,-0.4,-0.6,-0.2
7.928,-0.8,-0.5,0.0
8.042,-1.0,-0.4,0.2
8.044,-0.8,-0.6,0.4
8.055,-0.3,-0.7,0.4
8.056,0.1,-0.8,0.2
8.066,0.2,-1.0,0.1
8.121,-0.0,-1.0,0.0
8.123,-0.4,-1.0,-0.1
8.124,-0.8,-1.0,-0.2
8.126,-0.9,-0.9,-0.2
8.128,-0.6,-0.8,-0.2
8.225,-0.2,-0.7,-0.1
8.227,0.3,-0.6,-0.0
8.229,0.7,-0.7,-0.0
8.233,1.0,-0.8,0.1
8.235,1.0,-0.7,0.2
8.321,0.5,-0.8,0.3
8.323,-0.0,-0.5,0.2
8.325,-0.3,-0.2,0.1
8.326,-0.3,0.1,-0.1
8.332,-0.1,0.3,-0.2
8.429,-0.0,0.5,-0.4
8.43,-0.0,0.6,-0.4
8.432,-0.2,0.8,-0.3
8.444,-0.3,0.7,-0.1
8.542,-0.1,0.7,0.1
8.543,0.4,0.7,0.1
8.545,0.9,0.8,0.1
8.546,1.2,0.9,0.1
8.548,1.3,0.9,0.1
8.622,1.1,0.9,0.1
8.623,0.7,1.0,0.1
8.625,0.4,1.0,0.1
8.626,0.2,1.0,0.0
8.628,0.1,1.0,0.0
8.722,0.2,1.0,-0.1
8.725,0.3,1.0,-0.1
8.73,0.4,0.9,-0.2
8.732,0.4,0.8,-0.2
8.734,0.4,0.7,-0.3
8.837,0.2,0.5,-0.2
8.839,-0.1,0.5,-0.1
8.841,-0.2,0.3,0.1
8.851,-0.2,0.1,0.2
8.854,-0.1,-0.0,0.1
8.925,0.1,-0.2,0.0
8.926,0.1,-0.4,-0.2
8.928,-0.1,-0.6,-0.3
8.929,-0.4,-0.5,-0.3
8.931,-0.7,-0.4,-0.2
9.026,-1.0,-0.3,-0.0
9.028,-0.9,-0.2,0.2
9.03,-0.4,-0.2,0.5
9.031,0.4,-0.2,0.7
9.033,1.2,-0.3,0.7
9.121,1.8,-0.4,0.7
9.123,1.8,-0.6,0.6
9.124,1.4,-0.8,0.5
9.126,0.5,-1.0,0.3
9.128,-0.3,-1.2,0.1
9.214,-0.8,-1.2,-0.1
9.221,-1.0,-1.2,-0.2
9.231,-1.1,-1.1,-0.3
9.233,-1.1,-1.1,-0.3
9.234,-1.1,-1.1,-0.2
9.322,-0.9,-1.0,-0.2
9.324,-0.6,-1.0,-0.1
9.325,-0.6,-0.9,0.0
9.33,-0.9,-0.8,0.0
9.431,-1.4,-0.6,-0.1
9.433,-1.7,-0.3,-0.2
9.435,-1.4,-0.0,-0.3
9.436,-1.1,0.1,-0.3
9.438,-0.8,0.1,-0.4
9.439,-0.8,0.2,-0.4
9.529,-0.7,0.4,-0.3
9.531,-0.7,0.6,-0.1
9.532,-0.4,0.8,0.1
9.534,0.4,1.0,0.3
9.535,1.1,1.3,0.3
9.629,1.5,1.4,0.3
9.641,1.5,1.5,0.3
9.642,1.2,1.5,0.2
9.644,0.9,1.3,0.2
9.646,0.5,1.2,0.2
9.73,0.2,1.3,0.1
9.732,-0.1,1.3,-0.0
9.733,-0.3,1.3,-0.1
9.735,-0.1,1.3,-0.0
9.737,0.2,1.1,0.0
9.826,0.4,1.0,0.1
9.828,0.6,0.9,0.2
9.829,0.7,0.8,0.2
9.831,0.8,0.7,0.2
9.833,1.1,0.6,0.3
9.935,1.5,0.1,0.4
9.936,1.8,-0.4,0.4
9.943,1.7,-0.9,0.3
9.945,1.2,-1.3,0.2
9.947,0.1,-1.5,-0.0
10.009,-1.2,-1.5,-0.2
10.01,-2.4,-1.4,-0.4
10.012,-3.2,-1.3,-0.4
10.014,-3.1,-1.1,-0.2
10.015,-2.1,-1.1,0.1
10.127,-0.6,-1.0,0.3
10.129,0.9,-0.9,0.5
10.13,2.0,-0.9,0.5
10.226,2.2,-0.9,0.6
10.23,1.9,-1.0,0.5
10.236,1.5,-1.1,0.4
10.238,1.0,-1.1,0.2
10.239,0.6,-0.9,0.0
10.241,0.3,-0.8,-0.1
10.338,0.2,-0.7,-0.1
10.34,0.0,-0.6,-0.0
10.346,-0.1,-0.6,-0.0
10.352,-0.3,-0.6,0.0
10.353,-0.7,-0.4,0.1
10.426,-1.2,-0.2,0.0
10.428,-1.6,0.1,-0.1
10.429,-1.7,0.4,-0.2
10.431,-1.6,0.4,-0.4
10.433,-1.3,0.5,-0.5
10.521,-1.0,0.7,-0.5
10.522,-0.7,0.9,-0.5
10.524,-0.4,1.0,-0.4
10.526,-0.1,1.1,-0.2
10.527,0.3,1.3,0.1
10.623,0.8,1.4,0.2
10.629,1.3,1.5,0.4
10.631,1.6,1.4,0.4
10.632,1.5,1.4,0.3
10.634,1.2,1.3,0.3
10.729,0.6,1.1,0.2
10.731,-0.4,0.9,0.0
10.732,-1.3,0.8,-0.1
10.742,-1.9,0.7,-0.3
10.751,-1.9,0.5,-0.4
10.825,-1.5,0.3,-0.4
10.827,-1.0,0.1,-0.3
10.828,-0.4,0.1,-0.2
10.83,0.2,0.1,-0.0
10.832,0.5,0.2,0.2
10.925,0.8,0.0,0.4
10.926,1.2,-0.2,0.5
10.928,1.5,-0.4,0.5
10.929,1.6,-0.7,0.3
10.931,1.3,-1.0,-0.0
11.025,0.5,-1.2,-0.2
11.027,-0.4,-1.1,-0.2
11.029,-1.1,-1.0,-0.3
11.03,-1.6,-0.8,-0.3
11.032,-1.7,-0.8,-0.2
11.154,-1.1,-0.5,-0.1
11.155,-0.1,-0.4,-0.0
11.157,0.8,-0.5,-0.0
11.167,1.2,-0.6,-0.0
11.168,1.2,-0.9,-0.0
11.224,0.8,-1.1,-0.0
11.226,0.3,-1.2,-0.1
11.227,-0.2,-1.3,-0.3
11.231,-0.4,-1.1,-0.4
11.233,-0.5,-0.8,-0.5
11.332,-0.6,-0.6,-0.5
11.333,-0.3,-0.4,-0.4
11.335,0.1,-0.3,-0.2
11.337,0.5,-0.3,0.0
11.338,0.8,-0.4,0.2
11.42,0.6,-0.4,0.3
11.422,-0.2,-0.4,0.3
11.424,-1.0,-0.2,0.3
11.425,-1.5,0.2,0.2
11.427,-1.3,0.6,0.2
11.535,-0.6,0.8,0.3
11.536,0.2,0.9,0.4
11.547,0.7,0.9,0.4
11.548,0.9,0.9,0.5
11.55,0.6,0.9,0.5
11.621,0.2,1.0,0.5
11.622,0.2,1.0,0.4
11.624,0.6,1.1,0.3
11.625,1.0,1.3,0.2
11.627,1.4,1.3,0.0
11.726,1.6,1.1,-0.1
11.727,1.4,0.8,-0.3
11.729,0.9,0.5,-0.3
11.734,0.2,0.3,-0.3
11.827,-0.5,0.2,-0.3
11.829,-0.9,0.2,-0.3
11.831,-0.9,0.3,-0.2
11.832,-0.7,0.5,-0.1
11.834,-0.3,0.6,0.0
11.941,0.3,0.6,0.1
11.942,0.7,0.6,0.1
11.952,0.8,0.5,0.1
11.954,0.5,0.4,0.0
11.955,0.2,0.4,-0.0
12.021,-0.1,0.2,-0.0
12.029,-0.2,-0.2,-0.1
12.031,-0.2,-0.6,-0.2
12.032,-0.1,-1.0,-0.3
12.034,-0.2,-1.3,-0.4
12.122,-0.3,-1.5,-0.5
12.123,-0.7,-1.4,-0.5
12.134,-1.3,-1.2,-0.4
12.136,-1.6,-1.0,-0.2
12.137,-1.6,-0.7,-0.0
12.235,-1.1,-0.4,0.3
12.236,-0.1,-0.3,0.4
12.238,0.9,-0.2,0.5
12.239,1.6,-0.2,0.6
12.241,1.9,-0.3,0.5
12.32,1.9,-0.5,0.4
12.336,1.5,-0.7,0.2
12.337,0.8,-0.9,-0.1
12.339,0.1,-0.9,-0.3
12.341,-0.3,-0.8,-0.4
12.426,-0.4,-0.8,-0.3
12.428,-0.3,-0.7,-0.1
12.429,-0.1,-0.5,0.1
12.434,0.1,-0.4,0.3
12.436,0.2,-0.2,0.5
12.518,0.1,-0.0,0.5
12.52,0.0,0.1,0.5
12.521,-0.1,0.4,0.4
12.523,-0.1,0.7,0.3
12.524,0.1,0.8,0.1
12.628,0.2,0.8,-0.0
12.635,0.3,0.8,-0.1
12.636,0.4,0.8,-0.1
12.638,0.4,0.8,-0.1
12.64,0.3,1.0,-0.1
12.72,0.2,1.0,-0.1
12.722,0.1,1.2,-0.0
12.727,0.1,1.3,-0.0
12.729,0.1,1.3,-0.1
12.73,0.1,1.2,-0.2
12.824,-0.0,1.1,-0.3
12.826,-0.3,1.1,-0.4
12.827,-0.7,1.0,-0.5
12.829,-1.1,1.1,-0.6
12.831,-1.1,1.1,-0.5
12.92,-0.6,1.0,-0.3
12.922,0.0,0.8,-0.1
12.927,0.5,0.5,0.0
12.929,0.7,0.2,0.1
12.931,0.7,0.1,0.2
13.028,0.3,-0.0,0.1
13.03,-0.2,-0.0,0.1
13.039,-0.6,-0.0,0.1
13.04,-0.7,-0.2,0.2
13.05,-0.3,-0.5,0.3
13.12,0.1,-0.7,0.2
13.122,0.2,-0.9,0.1
13.123,0.1,-1.0,-0.1
13.125,-0.1,-1.1,-0.2
13.127,-0.3,-1.0,-0.3
13.225,-0.4,-0.9,-0.2
13.226,-0.3,-0.7,-0.1
13.228,0.0,-0.7,0.1
13.231,0.4,-0.6,0.2
13.233,0.8,-0.5,0.2
13.325,1.2,-0.6,0.3
13.326,1.3,-0.8,0.2
13.328,1.0,-0.9,0.1
13.33,0.5,-1.1,0.1
13.437,-0.2,-1.2,-0.0
13.438,-0.7,-1.2,-0.1
13.44,-0.9,-1.1,-0.2
13.441,-0.8,-1.0,-0.2
13.451,-0.5,-0.9,-0.1
13.524,-0.0,-0.8,0.1
13.525,0.5,-0.8,0.2
13.527,0.7,-0.7,0.4
13.528,0.5,-0.7,0.5
13.53,0.2,-0.5,0.4
13.626,-0.0,-0.1,0.3
13.628,-0.0,0.1,0.0
13.63,-0.0,0.1,-0.2
13.632,-0.2,0.2,-0.4
13.634,-0.5,0.4,-0.4
13.724,-0.9,0.4,-0.3
13.726,-1.3,0.5,-0.1
13.727,-1.4,0.7,0.1
13.729,-1.1,0.9,0.3
13.731,-0.3,1.2,0.4
13.833,0.5,1.5,0.5
13.835,1.2,1.6,0.5
13.841,1.5,1.7,0.3
13.851,1.3,1.6,0.1
13.853,0.8,1.6,-0.0
13.923,0.0,1.4,-0.1
13.928,-0.6,1.3,-0.2
13.93,-0.9,1.2,-0.3
13.931,-0.5,1.1,-0.2
13.933,-0.0,1.0,-0.1
14.023,0.5,0.8,0.0
14.025,0.8,0.6,0.2
14.027,0.7,0.3,0.2
14.031,0.1,0.2,0.1
14.033,-0.6,0.2,-0.1
14.12,-1.2,0.2,-0.2
14.122,-1.2,-0.0,-0.3
14.123,-0.7,-0.3,-0.2
14.125,0.0,-0.6,-0.2
14.134,0.6,-0.9,-0.2
14.226,0.9,-1.1,-0.2
14.246,0.7,-1.1,-0.2
14.256,0.2,-1.0,-0.3
14.257,-0.7,-0.8,-0.4
14.267,-2.0,-0.6,-0.6
14.327,-3.0,-0.5,-0.7
14.328,-2.9,-0.6,-0.6
14.33,-1.8,-0.6,-0.5
14.331,-0.4,-0.8,-0.3
14.333,0.5,-1.0,-0.2
14.424,0.9,-1.1,-0.0
14.426,0.9,-1.2,0.0
14.428,0.8,-1.3,0.0
14.429,0.7,-1.1,-0.1
14.431,0.7,-0.9,-0.2
14.524,0.6,-0.7,-0.3
14.526,0.6,-0.6,-0.2
14.527,0.7,-0.5,-0.1
14.529,0.8,-0.5,0.1
14.531,0.9,-0.5,0.2
14.636,0.8,-0.5,0.3
14.645,0.4,-0.5,0.3
14.652,-0.2,-0.3,0.3
14.654,-0.4,-0.1,0.2
14.655,-0.4,0.1,0.1
14.725,-0.4,0.4,0.1
14.726,-0.3,0.5,0.0
14.728,-0.3,0.4,0.0
14.73,-0.3,0.5,0.0
14.736,-0.4,0.7,0.1
14.849,-0.3,0.9,0.2
14.85,-0.1,0.9,0.3
14.854,0.1,1.1,0.4
14.856,0.2,1.3,0.4
14.858,0.4,1.4,0.3
14.936,0.6,1.4,0.1
14.938,0.6,1.2,-0.1
14.939,0.2,1.1,-0.2
14.941,-0.4,0.9,-0.3
14.946,-0.9,0.7,-0.3
14.957,-1.2,0.7,-0.2
15.016,-1.2,0.6,-0.1
15.018,-0.9,0.6,0.0
15.019,-0.7,0.7,0.1
15.021,-0.3,0.7,0.2
15.097,-0.0,0.6,0.2
15.102,-0.0,0.4,0.2
15.104,-0.2,0.3,0.1
15.105,-0.4,0.3,0.0
15.235,-0.4,0.1,0.0
15.237,-0.0,-0.1,0.0
15.238,0.2,-0.2,-0.0
15.24,0.4,-0.4,-0.1
15.331,0.5,-0.6,-0.0
15.332,0.5,-0.7,0.0
15.334,0.3,-0.5,0.1
15.335,-0.1,-0.4,0.2
15.342,-0.6,-0.4,0.2
15.344,-1.0,-0.4,0.2
15.42,-0.9,-0.5,0.2
15.421,-0.5,-0.8,0.2
15.426,0.1,-0.9,0.2
15.43,0.5,-1.0,0.1
15.432,0.6,-1.1,0.0
15.531,0.5,-1.2,-0.1
15.532,0.3,-1.2,-0.2
15.534,0.0,-1.1,-0.3
15.536,-0.0,-1.0,-0.4
15.537,0.1,-0.9,-0.4
15.625,0.4,-0.8,-0.3
15.627,0.7,-0.9,-0.2
15.628,0.8,-0.9,-0.1
15.63,0.6,-1.0,0.0
15.632,0.1,-1.1,0.1
15.732,-0.5,-1.1,0.0
15.734,-0.9,-0.7,-0.1
15.735,-0.8,-0.4,-0.2
15.737,-0.5,-0.2,-0.3
15.747,-0.4,-0.0,-0.5
15.826,-0.6,0.1,-0.6
15.828,-0.8,0.3,-0.6
15.829,-1.0,0.6,-0.5
15.831,-1.0,0.8,-0.2
15.832,-0.5,1.0,0.1
15.926,0.2,1.4,0.4
15.928,0.9,1.6,0.6
15.929,1.4,1.8,0.7
15.934,1.9,1.9,0.7
15.936,2.1,1.7,0.6
16.024,2.1,1.4,0.6
16.026,1.6,1.1,0.4
16.029,0.5,1.0,0.2
16.031,-0.6,1.0,0.0
16.033,-1.4,0.9,-0.2
16.133,-1.6,0.9,-0.3
16.134,-1.1,0.9,-0.3
16.136,-0.4,0.9,-0.2
16.145,0.1,0.6,-0.1
16.147,0.2,0.3,-0.1
16.232,-0.1,0.2,-0.0
16.236,-0.7,0.2,-0.0
16.239,-0.8,0.1,0.0
16.241,-0.5,-0.0,0.1
16.249,0.1,-0.3,0.1
16.323,0.9,-0.5,0.0
16.326,1.8,-0.8,-0.2
16.328,2.3,-1.1,-0.3
16.33,1.9,-1.2,-0.3
16.331,0.7,-1.2,-0.2
16.421,-0.2,-1.2,0.0
16.427,-1.0,-1.3,0.2
16.428,-1.3,-1.0,0.3
16.43,-1.0,-0.9,0.4
16.431,-0.3,-0.7,0.4
16.529,0.6,-0.8,0.4
16.539,1.0,-1.0,0.4
16.55,0.8,-1.3,0.3
16.552,0.1,-1.5,0.1
16.554,-0.6,-1.5,-0.1
16.622,-1.0,-1.4,-0.3
16.624,-1.0,-1.3,-0.4
16.626,-0.8,-1.2,-0.4
16.628,-0.4,-1.0,-0.3
16.724,0.1,-0.8,-0.3
16.726,0.4,-0.6,-0.1
16.727,0.6,-0.3,0.0
16.729,0.6,-0.1,0.1
16.731,0.2,0.3,0.1
16.824,-0.3,0.8,-0.0
16.826,-0.6,1.1,-0.1
16.827,-0.3,1.5,-0.1
16.829,0.3,1.5,-0.1
16.834,0.8,1.2,-0.1
16.934,0.9,1.0,-0.1
16.935,0.7,1.0,-0.1
16.945,0.4,1.2,0.0
16.946,0.3,1.1,0.3
16.96,0.3,1.1,0.3
17.023,0.4,1.2,0.3
17.024,0.5,1.3,0.2
17.026,0.3,1.4,0.1
17.028,-0.3,1.4,-0.1
17.032,-0.9,1.3,-0.1
17.124,-1.5,1.2,-0.1
17.126,-1.7,1.0,0.0
17.127,-1.5,0.8,0.2
17.129,-1.0,0.8,0.3
17.131,-0.3,0.8,0.4
17.238,0.5,0.7,0.4
17.24,1.1,0.7,0.3
17.242,1.2,0.7,0.1
17.243,0.9,0.7,0.1
17.245,0.6,0.6,0.1
17.319,0.6,0.2,0.1
17.34,0.6,-0.3,0.1
17.342,0.6,-0.6,0.0
17.343,0.6,-0.9,-0.1
17.345,0.4,-1.0,-0.2
17.424,-0.2,-0.9,-0.3
17.425,-0.9,-0.7,-0.2
17.429,-1.3,-0.9,-0.1
17.431,-1.1,-1.2,0.1
17.432,-0.6,-1.0,0.3
17.499,0.2,-1.1,0.4
17.501,0.8,-1.3,0.4
17.503,1.1,-1.4,0.3
17.504,1.0,-1.5,0.4
17.509,0.6,-1.5,0.4
17.619,0.3,-1.6,0.2
17.621,0.0,-1.6,0.0
17.624,-0.1,-1.5,-0.1
17.625,0.0,-1.4,-0.2
17.733,0.1,-1.4,-0.3
17.742,0.2,-1.3,-0.3
17.744,0.4,-1.1,-0.2
17.745,0.6,-1.0,-0.2
17.747,0.7,-0.8,-0.1
17.748,0.7,-0.5,-0.1
17.823,0.5,-0.2,-0.2
17.825,0.2,0.2,-0.3
17.826,0.0,0.6,-0.5
17.828,0.1,0.9,-0.6
17.83,0.2,1.0,-0.6
17.918,0.1,1.0,-0.6
17.925,-0.1,1.1,-0.5
17.926,-0.2,1.2,-0.3
17.928,-0.3,1.2,-0.1
17.929,-0.3,1.1,0.1
18.038,-0.4,1.4,0.1
18.04,-0.3,1.6,0.2
18.042,-0.0,1.8,0.1
18.044,0.3,1.8,0.0
18.054,0.6,1.7,-0.1
18.122,0.7,1.5,-0.3
18.124,0.2,1.2,-0.4
18.126,-0.4,0.9,-0.5
18.13,-0.9,0.7,-0.5
18.132,-1.1,0.6,-0.4
18.222,-1.1,0.4,-0.2
18.224,-1.0,0.3,-0.1
18.226,-0.7,0.3,0.0
18.227,-0.5,0.4,0.1
18.229,-0.2,0.6,0.2
18.323,0.3,0.6,0.4
18.325,0.9,0.4,0.5
18.329,1.5,-0.0,0.5
18.331,1.8,-0.5,0.4
18.434,1.7,-0.8,0.2
18.436,1.3,-0.9,-0.0
18.442,0.6,-1.0,-0.0
18.444,0.0,-1.1,-0.0
18.455,-0.4,-1.0,0.0
18.518,-0.4,-0.8,0.1
18.52,-0.1,-0.9,0.3
18.521,0.2,-0.7,0.3
18.523,0.4,-0.7,0.3
18.525,0.3,-0.9,0.3
18.622,-0.1,-0.9,0.3
18.628,-0.6,-1.0,0.1
18.631,-1.1,-1.0,0.0
18.636,-1.3,-0.8,-0.1
18.638,-1.2,-0.6,-0.1
18.718,-0.5,-0.5,-0.0
18.724,0.2,-0.5,0.1
18.728,0.7,-0.5,0.4
18.731,1.0,-0.5,0.5
18.732,1.0,-0.4,0.5
18.828,0.9,-0.2,0.4
18.838,0.8,-0.1,0.1
18.839,0.4,0.1,-0.2
18.849,-0.1,0.2,-0.4
18.851,-0.5,0.1,-0.5
18.918,-0.8,0.1,-0.5
18.92,-0.9,0.1,-0.4
18.921,-0.9,0.2,-0.3
18.926,-0.7,0.3,-0.2
18.928,-0.4,0.5,-0.1
19.023,-0.0,0.6,-0.1
19.027,0.3,0.7,-0.1
19.029,0.4,0.8,-0.1
19.031,0.5,0.7,-0.1
19.032,0.4,0.7,-0.2
19.12,0.2,0.5,-0.2
19.122,-0.1,0.4,-0.1
19.124,-0.4,0.3,-0.0
19.125,-0.6,0.1,-0.0
19.127,-0.8,0.1,-0.1
19.237,-1.1,0.1,-0.2
19.238,-1.4,0.1,-0.3
19.248,-1.5,0.2,-0.3
19.249,-1.4,0.3,-0.3
19.258,-1.1,0.4,-0.3
19.323,-0.7,0.4,-0.2
19.325,-0.2,0.4,-0.0
19.328,0.4,0.4,0.1
19.33,0.9,0.3,0.3
19.331,1.1,0.2,0.4
19.419,1.2,0.1,0.5
19.42,1.1,0.0,0.6
19.422,1.0,-0.1,0.5
19.423,0.8,-0.1,0.4
19.432,0.4,-0.1,0.3
19.519,-0.1,-0.2,0.1
19.525,-0.5,-0.3,0.0
19.528,-0.7,-0.3,-0.1
19.53,-0.8,-0.4,-0.1
19.533,-1.3,-0.4,-0.3
19.631,-2.1,-0.5,-0.5
19.647,-2.6,-0.6,-0.7
19.649,-2.6,-0.6,-0.8
19.651,-2.2,-0.6,-0.8
19.652,-1.6,-0.5,-0.8
19.718,-1.0,-0.4,-0.7
19.72,-0.4,-0.3,-0.6
19.726,0.1,-0.2,-0.4
19.728,0.5,-0.1,-0.1
19.729,0.7,0.0,0.1
19.822,0.9,0.2,0.3
19.827,1.0,0.3,0.4
19.828,0.8,0.3,0.4
19.83,0.5,0.3,0.3
19.831,0.3,0.2,0.2
19.93,0.0,0.1,0.1
19.937,-0.1,-0.0,0.1
19.939,-0.1,-0.1,0.1
19.941,0.0,-0.1,0.1
20.019,0.1,-0.1,0.2
20.029,0.2,-0.1,0.2
20.03,0.4,-0.0,0.2
20.032,0.6,-0.6,0.3
20.033,0.6,0.4,0.3
20.125,1.0,0.3,0.4
20.126,1.1,0.8,0.3
20.128,1.3,0.3,0.3
20.13,1.3,0.3,0.2
20.131,0.9,0.3,0.1
20.218,0.6,0.2,0.1
20.22,0.3,0.1,0.0
20.222,0.1,0.1,0.0
20.223,0.1,0.1,0.0
20.225,0.2,0.1,0.1
20.331,0.4,0.0,0.1
20.332,0.5,0.0,0.1
20.334,0.5,-0.0,0.1
20.341,0.4,-0.0,0.1
20.342,0.3,-0.0,0.1
20.418,0.2,-0.0,0.1
20.42,0.2,0.0,0.1
20.421,0.2,0.0,0.1
20.423,0.2,0.0,0.1
20.425,0.2,0.0,0.1
20.518,-0.1,0.0,0.1
20.523,-0.3,0.1,-0.1
20.525,-0.5,-0.0,-0.1
20.527,-0.5,-0.0,-0.2
20.528,-0.4,-0.1,-0.1
20.623,-0.1,-0.1,-0.0
20.625,0.1,-0.1,0.0
20.626,0.0,0.0,0.0
20.628,-0.1,0.1,-0.0
20.629,-0.1,0.1,-0.1
20.733,-0.1,0.1,-0.0
20.736,0.0,0.1,-0.1
20.744,0.1,0.0,-0.1
20.745,0.1,-0.0,-0.1
20.756,0.1,-0.1,-0.1
20.816,0.0,-0.0,-0.0
20.821,0.0,-0.0,0.0
20.823,0.1,-0.0,0.0
20.824,-1.8,0.9,0.4
20.826,-1.0,-0.4,0.3
20.923,-0.5,0.2,-0.1
20.925,1.3,0.2,-0.2
20.926,2.2,0.0,0.0
20.928,1.1,-0.3,0.3
20.93,0.9,-0.0,0.2
21.022,0.5,0.1,-0.0
21.024,0.1,-0.2,-0.1
21.025,-0.3,-0.1,-0.1
21.027,-0.3,-0.1,-0.1
21.028,-0.2,-0.1,-0.1
21.133,-0.1,-0.1,-0.0
21.135,-0.2,-0.1,0.0
21.136,-0.2,-0.1,-0.0
21.167,-0.1,-0.1,-0.1
21.17,0.1,-0.1,-0.1
21.221,0.2,-0.0,-0.1
21.223,0.1,-0.0,-0.0
21.225,0.1,-0.0,0.0
21.228,0.1,-0.0,0.0
21.229,0.1,-0.0,0.0
21.32,0.1,0.0,0.1
21.321,0.0,0.0,0.1
21.323,0.0,0.1,0.0
21.325,0.1,0.0,0.0
21.429,0.1,0.0,-0.0
21.431,0.1,-0.0,-0.0
21.433,0.0,0.0,0.0
21.434,-0.0,0.0,0.0
21.436,-0.1,0.0,0.0
21.437,-0.1,0.0,0.0
21.526,-0.1,-0.0,0.0
21.528,-0.2,-0.1,-0.1
21.544,-0.1,-0.0,-0.1
21.546,0.0,-1.3,0.3
21.547,0.0,0.4,-0.0
21.621,0.5,0.3,0.2
21.626,0.7,0.4,0.2
21.627,0.5,0.4,0.1
21.629,0.2,-0.1,0.0
21.724,-0.1,0.0,0.0
21.726,-0.4,0.1,-0.1
21.727,-0.3,-0.2,-0.1
21.729,-0.4,-0.2,-0.0
21.73,-0.5,-0.1,-0.0
21.818,-0.3,-0.1,0.1
21.82,0.0,-0.1,0.1
21.821,0.1,-0.0,0.1
21.827,0.2,0.0,0.1
21.829,0.2,-0.0,0.1
21.938,0.2,-0.0,0.0
21.939,0.1,-0.0,0.0
21.949,0.0,-0.0,-0.0
21.951,-0.0,0.0,-0.0
21.953,-0.0,0.0,-0.0
22.021,-0.0,0.0,-0.0
22.023,0.0,0.1,-0.0
22.025,0.2,0.1,-0.1
22.026,0.4,0.2,-0.1
22.028,0.5,0.2,-0.1
22.125,0.4,0.1,-0.0
22.151,0.1,-0.0,0.1
22.153,-0.1,-0.1,0.1
22.155,-0.2,-0.2,0.1
22.156,-0.1,-0.6,0.2
22.226,0.0,-0.6,0.1
22.234,0.4,-0.9,0.2
22.235,0.2,-0.1,0.1
22.237,0.1,-0.1,0.3
22.239,0.0,0.5,0.3
22.318,0.3,0.2,0.3
22.327,0.8,0.2,0.3
22.329,1.0,0.2,0.2
22.331,0.5,0.3,0.0
22.338,-0.2,0.7,-0.2
22.422,-0.5,0.6,-0.3
22.424,-0.7,0.3,-0.4
22.448,-0.9,0.2,-0.2
22.45,-0.8,-0.3,-0.1
22.452,-0.5,-0.5,0.2
22.523,-0.1,-0.4,0.4
22.525,0.1,-0.1,0.5
22.527,0.2,-0.0,0.7
22.555,0.3,0.2,0.7
22.556,0.5,0.3,0.6
22.604,0.6,0.4,0.6
22.606,0.7,0.4,0.5
22.607,0.8,0.4,0.4
22.609,0.7,0.3,0.3
22.611,0.4,0.3,0.3
22.717,0.1,0.3,0.1
22.727,-0.1,0.3,-0.1
22.729,-0.1,0.2,-0.1
22.73,0.1,0.2,0.1
22.826,0.0,0.2,0.1
22.828,-0.1,0.1,0.1
22.83,-0.1,-0.1,-0.2
22.831,-0.2,-0.6,-0.7
22.833,-0.2,-0.8,-0.9
22.838,-0.0,-0.8,-0.7
22.919,0.1,-0.9,-0.4
22.92,0.2,-0.7,-0.2
22.922,0.1,-0.3,-0.2
22.928,-0.0,0.0,-0.2
22.929,-0.5,0.3,-0.1
23.026,-0.7,0.2,-0.3
23.028,-0.6,0.0,-0.2
23.029,-0.4,-0.1,-0.1
23.031,-0.2,0.0,0.0
23.057,-0.1,-0.1,0.0
23.119,-0.1,-0.1,0.0
23.121,-0.2,-0.0,-0.0
23.122,-0.3,-0.0,-0.0
23.129,-0.4,-0.0,-0.1
23.131,-0.3,-0.0,-0.0
23.223,-0.1,-0.0,0.0
23.225,-0.0,-0.0,0.1
23.231,-0.0,-0.0,0.1
23.232,-0.0,0.0,0.1
23.234,-0.1,0.0,0.0
23.322,-0.1,0.0,0.0
23.323,-0.1,0.0,0.0
23.325,-0.1,0.0,0.1
23.327,-0.1,0.0,0.1
23.432,-0.2,0.0,0.2
23.434,-0.2,0.1,0.0
23.435,0.1,-0.1,0.1
23.437,0.1,-0.1,0.1
23.452,-0.1,-0.1,0.1
23.518,-0.2,-0.1,0.0
23.519,-0.2,-0.0,-0.0
23.527,-0.2,0.0,-0.0
23.529,-0.1,0.1,-0.0
23.53,-0.0,0.1,-0.0
23.618,0.0,0.1,0.0
23.619,0.0,0.1,0.0
23.621,-0.1,0.0,0.0
23.623,-0.3,0.1,-0.0
23.624,-0.6,0.1,-0.1
23.694,-0.4,0.2,-0.1
23.695,-0.2,0.2,-0.0
23.697,0.0,0.1,0.0
23.699,0.1,0.0,0.1
23.703,0.1,0.1,0.0
