gyro_time_list,gyro_x_list,gyro_y_list,gyro_z_list
0.0,0.2,0.1,-0.1
0.001,0.1,0.1,-0.1
0.003,0.5,0.3,0.1
0.005,-0.4,0.1,0.1
0.074,0.1,0.2,0.1
0.076,-0.2,0.3,0.2
0.081,-0.0,-0.1,0.0
0.083,-0.1,-0.0,0.0
0.181,-0.1,-0.0,0.0
0.183,-0.1,0.0,0.0
0.184,-0.1,0.1,0.0
0.186,-0.1,0.0,-0.0
0.287,-0.1,0.0,-0.0
0.295,-0.1,0.1,-0.0
0.297,-0.1,0.1,0.0
0.3,-0.2,0.1,0.0
0.377,-0.1,0.1,0.1
0.382,-0.2,0.1,0.1
0.384,-0.2,0.2,0.1
0.386,-0.2,0.2,0.1
0.476,-0.3,0.2,0.1
0.478,-0.3,0.3,0.2
0.48,-0.2,0.3,0.2
0.481,-0.2,0.2,0.2
0.585,-0.3,0.2,0.2
0.587,-0.3,0.2,0.2
0.588,-0.2,0.1,0.2
0.59,-0.2,0.1,0.2
0.693,-0.2,0.2,0.2
0.695,-0.2,0.1,0.2
0.696,-0.2,0.1,0.2
0.706,-0.1,0.1,0.2
0.777,-0.1,0.1,0.2
0.778,-0.1,0.1,0.1
0.78,-0.2,0.1,0.1
0.785,-0.2,0.1,0.2
0.876,-0.4,0.2,0.2
0.882,-0.6,0.2,0.3
0.884,-0.7,0.4,0.3
0.886,-1.0,0.5,0.4
0.998,-1.8,0.8,0.4
1.0,-1.8,1.0,0.5
1.001,-1.7,1.0,0.4
1.003,-1.8,1.1,0.4
1.097,-1.9,1.5,0.6
1.098,-1.6,1.5,0.7
1.108,-1.5,1.4,0.7
1.112,-1.8,1.4,0.9
1.182,-1.5,1.6,1.1
1.183,-1.7,1.6,1.2
1.188,-2.2,1.5,1.3
1.19,-2.8,1.7,1.4
1.278,-3.7,1.6,1.4
1.28,-4.0,1.4,1.3
1.281,-3.9,1.2,1.3
1.283,-3.5,1.0,1.1
1.383,-3.5,1.0,0.9
1.385,-4.3,1.0,0.9
1.386,-5.1,1.1,1.0
1.388,-5.5,1.1,1.2
1.491,-5.1,0.8,1.6
1.502,-4.3,0.6,1.9
1.504,-3.2,0.5,2.1
1.506,-2.0,0.4,2.3
1.582,-0.5,0.4,2.5
1.585,-0.5,0.4,2.4
1.587,-1.0,0.8,2.4
1.589,-0.4,0.8,2.3
1.682,0.9,0.9,1.8
1.685,1.1,1.0,1.5
1.686,1.1,0.9,1.2
1.688,1.0,0.7,0.9
1.775,0.1,0.3,0.5
1.777,-0.5,0.2,0.3
1.779,-1.0,0.1,0.2
1.78,-1.2,-0.0,0.1
1.896,-1.0,-0.2,-0.1
1.898,-0.7,-0.1,-0.1
1.899,-0.3,-0.1,-0.2
1.901,0.1,-0.2,-0.3
1.989,0.6,-0.1,-0.4
1.991,0.8,-0.2,-0.5
1.992,0.9,-0.2,-0.5
1.994,0.9,-0.3,-0.6
2.085,0.7,-0.6,-0.6
2.086,0.1,-0.8,-0.6
2.088,-0.4,-1.0,-0.6
2.09,-0.7,-1.1,-0.6
2.182,-1.0,-0.9,-0.8
2.184,-1.2,-0.9,-0.9
2.186,-1.3,-0.9,-0.9
2.191,-1.4,-0.7,-0.9
2.286,-0.5,-0.4,-0.9
2.288,0.3,-0.4,-0.8
2.289,1.1,-0.3,-0.7
2.291,1.1,-0.1,-0.9
2.382,0.9,0.0,-0.9
2.389,1.3,0.0,-0.9
2.391,1.4,0.1,-0.8
2.393,1.5,0.1,-0.7
2.478,1.4,0.1,-0.5
2.479,1.3,-0.0,-0.4
2.485,1.0,-0.1,-0.4
2.487,0.7,-0.1,-0.5
2.596,0.0,0.0,-0.5
2.598,-0.1,0.1,-0.5
2.6,-0.2,0.2,-0.5
2.681,-0.1,0.3,-0.3
2.684,0.3,0.4,-0.0
2.686,0.3,0.4,0.1
2.687,0.3,0.4,0.2
2.689,0.2,0.4,0.2
2.777,-0.1,0.4,0.4
2.779,-0.2,0.5,0.4
2.78,-0.4,0.4,0.4
2.876,-3.5,-0.5,0.1
2.88,-7.3,-1.2,-0.2
2.881,-4.8,-1.2,0.3
2.887,-2.0,-1.3,0.3
2.99,-1.0,-0.6,0.7
2.994,0.4,0.9,1.3
2.995,1.4,0.9,1.9
3.005,1.9,0.4,2.1
3.078,2.3,0.4,2.1
3.086,4.1,1.6,1.0
3.088,4.2,1.3,0.6
3.089,3.4,0.4,0.2
3.181,2.3,-0.5,-0.3
3.184,-0.5,-0.8,-0.9
3.185,-1.3,-0.6,-0.9
3.187,-1.5,-0.8,-0.9
3.283,-1.4,-0.9,-0.8
3.287,-0.4,-0.8,-0.4
3.288,0.3,-0.9,-0.2
3.29,1.0,-0.9,-0.0
3.39,1.7,-0.8,0.2
3.393,1.7,0.1,0.2
3.409,0.0,0.5,0.2
3.411,-0.9,0.7,0.3
3.477,-1.4,0.8,0.3
3.48,-1.7,1.0,0.6
3.485,-1.0,1.2,0.7
3.487,0.2,1.4,0.8
3.586,1.7,0.7,0.9
3.589,3.2,-0.0,0.3
3.594,2.9,-0.6,-0.1
3.595,1.9,-1.3,-0.6
3.676,0.6,-1.0,-0.7
3.679,-1.4,-0.9,-1.0
3.681,-1.9,-1.1,-1.1
3.683,-3.0,-1.1,-1.0
3.789,-3.7,-0.7,-0.6
3.801,-2.4,-0.1,0.1
3.803,-1.3,-0.1,0.4
3.804,-0.2,-0.1,0.6
3.876,0.9,0.0,0.7
3.879,2.0,0.1,0.7
3.887,1.9,0.1,0.7
3.889,1.7,0.1,0.6
3.975,1.2,0.0,0.5
3.979,-0.1,-0.1,0.1
3.98,-0.7,-0.1,-0.0
3.987,-1.2,-0.2,-0.1
4.077,-1.4,-0.2,-0.2
4.08,-1.5,0.6,-0.1
4.085,-1.2,0.5,0.0
4.087,-0.9,-0.2,0.0
4.184,-0.5,-0.7,-0.2
4.203,-0.8,1.0,-0.1
4.206,-0.8,1.1,0.1
4.21,-0.5,0.1,0.2
4.275,-0.2,-0.5,0.3
4.282,-0.4,-0.3,0.2
4.283,-0.4,-0.0,0.1
4.38,-0.3,0.2,0.1
4.382,-0.0,0.2,0.1
4.385,0.3,-0.2,0.0
4.387,0.2,-0.3,-0.0
4.476,0.2,0.1,0.1
4.477,0.6,0.6,0.1
4.481,1.3,0.3,0.1
4.482,1.1,0.2,0.1
4.596,0.9,0.3,0.2
4.605,0.8,0.4,0.1
4.613,0.5,-0.0,-0.3
4.615,0.2,0.6,-0.2
4.679,0.2,1.0,-0.1
4.681,0.4,0.1,-0.2
4.689,0.6,-0.9,-0.4
4.69,0.3,-0.7,-0.7
4.778,-0.0,0.2,-0.7
4.781,-0.1,0.4,-0.7
4.785,0.1,-0.7,-0.6
4.79,-0.1,-0.6,-0.4
4.886,-0.4,-0.4,-0.3
4.888,-0.4,-0.4,-0.3
4.891,-0.1,-0.1,-0.2
4.892,0.1,-0.1,-0.1
4.976,0.2,-0.1,-0.0
4.977,0.3,-0.3,-0.0
4.984,0.2,-0.3,0.0
4.986,0.1,-0.1,0.0
5.073,0.0,0.1,0.0
5.075,-0.0,0.1,0.1
5.082,-0.1,0.2,0.3
5.084,-0.1,0.2,0.5
5.178,-0.1,0.2,0.6
5.18,-0.1,0.7,0.7
5.183,0.0,0.9,0.7
5.19,0.2,0.8,0.7
5.284,0.4,0.3,0.4
5.285,0.7,0.2,0.2
5.288,1.0,1.3,0.0
5.305,1.2,0.7,-0.1
5.379,1.3,0.2,-0.2
5.381,1.0,0.0,-0.3
5.384,0.3,-0.4,-0.6
5.386,0.0,-0.3,-0.7
5.48,-0.1,-0.1,-0.6
5.482,0.0,-0.2,-0.5
5.486,0.9,-0.7,-0.4
5.487,1.1,-0.5,-0.3
5.579,1.1,-0.0,-0.2
5.585,0.8,0.0,-0.3
5.589,-0.0,-0.2,-0.3
5.59,-0.0,-0.0,-0.2
5.69,0.1,0.1,-0.2
5.691,0.5,0.3,-0.2
5.703,1.0,0.5,-0.1
5.704,1.2,0.8,0.1
5.776,1.3,0.5,0.2
5.787,1.3,-0.1,0.1
5.79,0.7,0.7,0.2
5.792,0.6,0.4,0.2
5.881,0.6,-0.4,-0.1
5.883,0.1,-0.3,-0.1
5.886,-0.6,-0.0,-0.3
5.891,-0.7,-0.4,-0.4
5.975,-0.8,-0.4,-0.3
5.977,-0.7,0.0,-0.1
5.98,-0.0,0.6,0.4
5.982,0.6,0.5,0.6
6.085,1.2,0.4,0.8
6.087,1.6,0.5,0.8
6.098,1.9,0.6,0.8
6.176,1.8,0.4,0.8
6.181,1.5,0.3,0.7
6.183,1.3,0.2,0.6
6.186,0.9,0.2,0.3
6.279,0.8,0.1,0.1
6.28,0.8,0.2,-0.1
6.282,0.7,0.3,-0.2
6.288,0.6,0.4,-0.3
6.38,0.6,0.5,-0.3
6.381,0.8,0.5,-0.4
6.383,1.2,0.4,-0.4
6.386,2.1,0.2,-0.7
6.494,2.3,0.4,-0.8
6.495,2.6,0.3,-0.9
6.508,2.9,0.0,-1.0
6.516,2.5,-0.2,-1.3
6.583,2.1,-0.3,-1.4
6.585,1.9,-0.4,-1.5
6.587,1.4,-0.4,-1.5
6.59,1.1,-0.4,-1.4
6.679,1.1,-0.4,-1.4
6.681,1.2,-0.2,-1.2
6.685,1.3,-0.1,-1.1
6.688,1.6,0.2,-0.7
6.773,1.6,0.3,-0.5
6.777,1.6,0.4,-0.4
6.784,1.6,0.4,-0.4
6.787,1.5,0.6,-0.4
6.883,1.4,0.8,-0.4
6.9,1.3,0.7,-0.4
6.902,1.2,0.6,-0.3
6.905,0.6,0.9,-0.1
6.975,0.5,0.8,-0.0
6.977,0.4,0.4,-0.1
6.978,0.3,0.4,-0.1
6.981,0.3,1.1,-0.0
7.079,0.6,1.1,0.1
7.081,0.9,1.0,0.2
7.083,1.3,1.1,0.5
7.086,2.0,1.1,0.7
7.175,2.2,1.1,0.6
7.178,2.2,1.1,0.3
7.179,2.3,1.0,0.1
7.187,2.4,0.9,-0.3
7.283,2.4,0.8,-0.4
7.287,2.4,0.6,-0.5
7.289,2.4,0.4,-0.6
7.298,2.0,0.4,-0.6
7.378,1.7,0.3,-0.7
7.38,1.4,0.2,-0.6
7.381,1.1,0.2,-0.6
7.384,0.6,0.2,-0.4
7.48,0.6,0.1,-0.3
7.484,0.6,0.2,-0.2
7.485,0.6,0.2,-0.2
7.489,0.7,0.2,-0.1
7.59,0.7,0.3,-0.1
7.592,0.6,0.3,-0.1
7.594,0.7,0.4,-0.0
7.675,0.7,0.1,-0.0
7.676,0.6,-0.2,-0.1
7.681,0.4,0.0,-0.2
7.683,0.3,0.4,-0.2
7.78,0.7,0.3,-0.3
7.782,0.8,0.2,-0.2
7.783,1.0,0.1,-0.1
7.785,1.1,0.1,-0.2
7.88,1.0,0.3,-0.3
7.881,1.1,0.5,-0.3
7.886,1.5,0.5,-0.2
7.888,1.7,0.5,-0.1
7.988,1.7,0.5,0.1
7.989,1.5,0.4,0.0
7.996,1.3,0.4,-0.0
7.998,1.1,0.3,-0.2
8.08,0.7,0.2,-0.4
8.081,0.5,0.1,-0.5
8.083,0.3,0.0,-0.5
8.085,0.3,-0.1,-0.5
8.178,-0.1,-0.1,-0.4
8.18,-0.5,-0.0,-0.4
8.182,-0.6,0.2,-0.3
8.183,-0.4,0.2,-0.2
8.275,0.5,-0.4,-0.3
8.276,0.6,0.0,-0.3
8.278,0.8,0.4,-0.2
8.28,1.3,0.2,-0.1
8.391,2.0,-0.1,0.2
8.394,1.2,-0.0,0.2
8.396,0.3,-0.1,0.0
8.405,-0.2,-0.2,-0.1
8.477,-0.5,-0.0,-0.3
8.478,-0.4,-0.1,-0.4
8.48,-0.2,-0.2,-0.3
8.481,0.0,-0.3,-0.3
8.578,0.3,-0.4,-0.3
8.58,0.3,-0.4,-0.3
8.582,0.2,-0.5,-0.4
8.583,-0.0,-0.6,-0.5
8.679,-0.3,-0.4,-0.5
8.681,-0.3,-0.4,-0.4
8.682,-0.3,-0.5,-0.3
8.684,-0.4,-0.4,-0.2
8.79,-0.5,-0.2,0.1
8.791,-0.5,0.1,0.3
8.801,-0.8,0.8,0.5
8.803,-1.0,1.2,0.9
8.879,-1.2,-0.2,1.0
8.881,-1.2,-0.3,0.9
8.883,-1.0,0.9,0.9
8.884,-0.4,1.8,0.9
8.98,1.4,0.5,0.7
8.981,1.7,0.3,0.6
8.983,1.4,0.2,0.4
8.985,0.7,0.5,0.3
9.075,-0.3,0.1,0.2
9.076,-0.4,-0.2,0.2
9.078,-0.5,-0.2,0.2
9.079,-0.6,0.3,0.3
9.188,-0.2,0.2,0.4
9.204,0.2,0.0,0.5
9.206,0.6,0.1,0.5
9.209,0.8,0.1,0.5
9.274,0.9,-0.2,0.1
9.276,0.7,-0.2,-0.2
9.277,0.4,-0.3,-0.4
9.279,-0.0,-0.3,-0.6
9.384,-0.6,-0.0,-0.7
9.386,-0.4,-0.4,-0.7
9.388,-0.2,-0.7,-0.7
9.393,-0.1,-0.8,-0.8
9.476,-0.4,0.2,-0.6
9.478,-0.1,-0.5,-0.7
9.479,0.1,-0.9,-0.7
9.481,-0.1,-0.5,-0.5
9.605,-0.3,-0.3,-0.6
9.606,-0.1,-0.3,-0.7
9.608,0.0,-0.1,-0.6
9.609,0.2,0.1,-0.6
9.708,0.5,-0.0,-0.5
9.71,0.4,-0.0,-0.4
9.712,0.3,-0.0,-0.3
9.713,0.2,-0.1,-0.2
9.784,-0.3,-0.2,0.1
9.786,-0.5,-0.2,0.2
9.787,-0.7,-0.1,0.3
9.789,-0.8,0.0,0.4
9.909,-0.5,0.2,0.5
9.911,-0.2,0.6,0.6
9.912,0.1,1.1,0.8
9.914,0.4,1.4,1.1
9.985,0.8,0.5,1.3
9.987,0.9,-0.2,1.1
9.989,0.8,0.1,0.7
9.994,0.7,0.7,0.4
10.075,0.4,0.1,-0.3
10.077,0.0,-0.1,-0.4
10.078,-0.5,-0.4,-0.5
10.08,-0.9,-0.6,-0.5
10.178,-1.5,-0.5,-0.4
10.18,-1.4,-0.4,-0.2
10.182,-0.9,-0.4,-0.0
10.183,-0.2,-0.4,0.1
10.289,-0.0,0.0,0.2
10.291,-0.2,0.3,0.3
10.292,0.2,0.2,0.3
10.309,0.6,-0.0,0.3
10.401,0.6,0.4,0.2
10.403,0.6,0.1,0.1
10.404,0.5,-0.2,-0.1
10.406,0.1,0.3,-0.1
10.483,0.1,0.1,-0.1
10.488,0.3,0.1,-0.0
10.49,0.4,-0.2,-0.1
10.491,0.3,-0.2,-0.1
10.577,0.1,-0.5,-0.3
10.578,0.1,-0.6,-0.5
10.58,-0.1,-0.4,-0.5
10.582,-0.3,-0.3,-0.5
10.711,-0.4,-0.4,-0.6
10.715,-0.4,-0.3,-0.5
10.726,-0.2,-0.3,-0.4
10.728,-0.1,-0.4,-0.4
10.779,-0.1,-0.3,-0.2
10.78,-0.1,-0.2,-0.1
10.789,-0.0,-0.3,-0.0
10.791,-0.1,-0.3,0.1
10.901,-0.2,-0.1,0.2
10.902,-0.3,-0.0,0.3
10.904,-0.3,-0.0,0.3
10.905,-0.3,-0.0,0.3
10.985,-0.4,1.2,0.6
11.0,-0.4,1.6,0.9
11.001,-0.4,1.0,1.1
11.003,-0.2,-0.2,0.9
11.107,0.2,0.8,0.7
11.128,0.5,1.5,0.5
11.13,1.0,0.8,0.3
11.182,1.3,0.1,0.0
11.186,0.5,-0.2,-0.1
11.188,-0.2,-0.1,-0.1
11.191,-0.6,0.1,-0.1
11.196,-0.8,-0.1,-0.1
11.298,-0.7,-0.6,-0.1
11.299,-0.7,-0.7,-0.2
11.301,-0.7,-0.4,-0.2
11.406,-0.7,0.0,-0.1
11.41,0.1,0.0,-0.1
11.412,0.4,-0.0,-0.0
11.413,0.5,0.1,0.1
11.419,0.5,0.2,0.1
11.524,0.6,0.2,0.1
11.526,0.6,0.5,0.1
11.527,0.7,1.0,0.2
11.529,1.1,0.7,0.2
11.584,1.7,0.1,0.1
11.586,1.7,0.1,-0.2
11.592,1.6,0.4,-0.3
11.593,1.6,0.1,-0.5
11.705,0.6,-1.1,-1.0
11.709,-0.1,-0.8,-1.1
11.711,-0.7,-0.8,-1.4
11.814,-1.2,-0.7,-1.6
11.818,-1.1,-0.7,-1.5
11.819,-0.7,-0.7,-1.3
11.826,-0.4,-0.7,-1.2
11.828,-0.2,-0.7,-0.9
11.905,0.2,-0.5,-0.4
11.908,0.4,-0.6,-0.2
11.91,0.3,-0.6,0.0
11.911,0.1,-0.6,0.2
12.007,-0.6,-0.4,0.5
12.009,-0.8,-0.3,0.5
12.01,-1.0,-0.2,0.6
12.102,-1.1,-0.2,0.7
12.105,-1.1,0.7,1.1
12.111,-1.0,1.4,1.5
12.115,-0.9,1.6,2.0
12.118,-0.6,1.0,2.3
12.215,0.5,0.5,2.1
12.222,0.9,1.7,1.9
12.223,1.5,2.0,1.6
12.235,2.1,1.3,1.2
12.298,2.0,0.4,0.6
12.3,1.1,0.1,0.2
12.301,-0.1,0.1,-0.0
12.303,-1.0,0.3,-0.1
12.405,-1.6,-0.4,-0.3
12.407,-1.7,-0.6,-0.3
12.408,-1.5,-0.7,-0.4
12.41,-1.2,-0.6,-0.4
12.477,-0.6,-0.1,-0.4
12.479,-0.0,-0.0,-0.3
12.48,0.4,-0.0,-0.1
12.482,0.6,0.1,0.1
12.591,0.7,0.2,0.4
12.598,0.9,-0.1,0.2
12.699,0.8,0.2,0.1
12.701,0.8,0.7,0.1
12.704,1.0,-0.8,-0.7
12.706,0.7,-0.6,-1.0
12.809,-0.2,-0.3,-1.4
12.811,-0.8,-0.6,-1.8
12.814,-0.5,-1.4,-2.6
12.816,-0.3,-1.1,-3.0
12.817,0.0,-1.1,-3.3
12.819,0.2,-1.2,-3.3
12.905,0.3,-0.3,-3.1
12.909,0.6,0.2,-2.8
12.911,1.0,0.3,-2.4
12.912,1.1,0.2,-2.0
13.021,0.9,0.4,-1.4
13.03,0.9,0.4,-1.3
13.032,0.7,0.3,-1.1
13.099,0.4,0.1,-0.9
13.106,0.1,0.3,-0.4
13.108,0.2,0.4,-0.3
13.109,0.2,0.5,-0.1
13.203,0.2,1.1,0.2
13.206,0.7,2.4,1.1
13.208,1.5,2.3,1.8
13.209,2.4,1.5,2.0
13.299,3.1,1.3,2.0
13.302,3.5,2.0,1.8
13.304,3.5,1.3,1.4
13.305,3.4,1.0,1.1
13.406,2.8,0.7,0.8
13.422,0.4,0.3,0.5
13.424,-0.5,0.1,0.5
13.426,-1.3,-0.0,0.6
13.506,-1.9,-0.2,0.6
13.512,-2.3,-0.7,0.6
13.514,-2.1,-0.7,0.6
13.515,-2.0,-0.4,0.6
13.598,-1.6,-0.2,0.5
13.607,-0.7,-0.5,0.2
13.609,-0.6,-0.5,0.1
13.61,-0.6,-0.1,-0.0
13.698,-0.3,0.1,-0.2
13.701,0.2,0.1,-0.4
13.711,0.1,0.6,-0.3
13.713,0.3,0.5,-0.3
13.804,0.3,0.4,-0.1
13.816,0.5,1.3,0.8
13.817,1.2,0.8,1.1
13.819,1.7,0.0,1.1
13.903,1.7,-0.2,1.0
13.906,0.4,0.2,0.7
13.908,-0.4,0.2,0.6
13.909,-0.9,-0.0,0.4
14.001,-1.1,-0.2,0.3
14.007,-1.2,-0.2,0.1
14.009,-1.0,-0.3,-0.0
14.011,-0.7,-0.4,-0.1
14.103,-0.5,-0.5,-0.2
14.107,-0.5,-0.7,-0.5
14.108,-0.6,-0.7,-0.6
14.11,-0.8,-0.6,-0.6
14.214,-1.0,-0.4,-0.6
14.217,-0.7,-0.3,-0.4
14.222,-0.5,-0.3,-0.3
14.224,-0.4,0.1,-0.0
14.298,-0.5,1.0,0.2
14.302,-0.5,1.6,1.2
14.307,-0.6,0.3,0.9
14.308,-0.4,0.2,0.7
14.403,0.5,1.0,0.3
14.406,-1.9,0.4,-0.6
14.408,-1.4,-1.4,-1.1
14.41,-0.7,-1.4,-0.9
14.513,-0.2,-0.9,-1.0
14.517,1.6,-0.2,-0.9
14.518,2.3,-0.1,-0.8
14.528,2.5,0.1,-0.7
14.603,2.2,0.3,-0.6
14.606,1.3,0.3,-0.6
14.608,1.1,0.3,-0.6
14.61,0.9,0.7,-0.5
14.701,0.7,1.5,-0.3
14.708,1.3,1.2,0.1
14.71,1.8,0.9,0.2
14.799,2.4,1.5,0.3
14.8,2.9,1.7,0.1
14.804,3.6,1.5,-0.4
14.809,3.7,1.9,-0.5
14.906,3.5,1.8,-0.4
14.908,3.2,1.3,-0.5
14.911,2.5,1.4,-0.3
14.929,2.3,1.4,-0.3
14.975,2.3,1.2,-0.3
14.977,2.2,1.1,-0.2
14.984,1.8,1.0,-0.1
14.986,1.9,0.9,0.1
15.093,1.9,0.9,0.2
15.094,1.8,0.9,0.3
15.102,2.0,1.0,0.4
15.203,2.2,1.0,0.4
15.205,2.4,1.0,0.3
15.207,2.7,1.0,0.2
15.21,3.1,0.9,-0.1
15.212,3.2,0.8,-0.2
15.306,3.1,0.7,-0.4
15.308,2.8,0.5,-0.5
15.325,2.2,0.3,-0.6
15.327,1.9,0.2,-0.7
15.402,1.5,0.1,-0.9
15.403,1.1,0.0,-1.0
15.407,-0.1,0.0,-1.3
15.408,-0.1,0.1,-1.3
15.525,0.1,0.1,-1.4
15.527,0.4,-0.0,-1.7
15.53,1.8,-0.1,-2.5
15.532,1.6,-0.3,-3.1
15.608,0.8,-0.6,-3.6
15.61,0.6,-0.7,-4.1
15.613,0.7,-0.7,-4.5
15.615,1.3,-0.8,-4.5
15.616,1.4,-0.7,-4.4
15.706,1.2,-0.8,-4.1
15.727,0.6,-1.1,-3.6
15.729,0.5,-0.9,-3.4
15.802,1.1,-0.9,-3.3
15.804,1.3,-1.1,-3.1
15.81,1.0,-0.8,-2.3
15.812,1.5,-0.7,-1.9
15.901,1.3,-0.6,-1.6
15.903,1.2,-0.3,-1.3
15.906,1.8,-0.2,-0.8
15.911,1.1,-0.1,-0.5
15.999,0.3,0.1,-0.3
16.0,-0.4,0.2,-0.1
16.004,-0.4,0.2,0.3
16.005,0.0,0.4,0.5
16.113,-0.3,0.6,0.6
16.123,-0.6,0.8,0.7
16.126,0.3,1.6,0.9
16.127,1.8,-0.0,1.0
16.198,-2.9,0.2,-1.7
16.206,5.0,-3.8,-0.8
16.21,-1.2,0.2,-0.8
16.212,0.1,0.4,-0.6
16.297,0.4,-0.4,-0.2
16.303,1.0,0.0,-0.2
16.307,0.6,0.3,0.4
16.404,0.8,0.4,0.3
16.407,0.9,0.4,0.5
16.409,1.5,0.8,0.5
16.413,-1.8,-0.3,1.2
16.516,-0.4,0.3,0.7
16.526,-0.3,-0.7,0.6
16.527,-0.8,-0.1,0.0
16.532,0.5,-0.3,-0.4
16.601,1.1,-0.1,-0.4
16.603,0.9,-0.1,-0.5
16.605,0.5,-0.1,-0.6
16.608,0.5,-0.4,-0.3
16.702,0.2,-0.3,-0.2
16.707,0.0,-0.3,-0.3
16.708,0.3,-0.2,-0.1
16.711,0.5,-0.3,-0.0
16.811,0.4,-0.3,-0.0
16.813,0.4,-0.4,0.1
16.814,0.4,-0.3,0.2
16.818,0.1,-0.1,0.3
16.898,-0.0,0.0,0.5
16.903,0.1,0.1,0.7
16.905,0.1,0.2,0.8
16.908,0.5,0.1,0.5
16.998,0.7,0.1,0.3
16.999,0.9,0.2,0.3
17.001,0.6,0.2,0.3
17.004,-0.1,0.2,0.3
17.103,-0.1,0.1,0.2
17.105,0.1,0.1,0.1
17.107,0.7,0.1,0.0
17.11,1.0,-0.1,-0.1
17.204,1.0,-0.1,-0.1
17.206,1.0,-0.1,-0.2
17.213,0.7,-0.1,-0.2
17.224,1.0,-0.8,-0.4
17.301,0.8,-0.5,-0.4
17.303,0.4,-0.4,-0.4
17.304,-0.0,-0.5,-0.3
17.312,-0.5,-0.1,-0.1
17.402,0.1,0.0,0.0
17.404,0.3,0.3,0.1
17.405,0.1,0.6,0.2
17.409,0.4,0.5,0.1
17.504,0.7,0.6,0.1
17.506,0.6,0.7,0.1
17.507,0.4,0.6,0.2
17.51,0.3,0.2,0.2
17.616,0.3,0.0,0.1
17.619,0.4,-0.2,-0.0
17.62,0.5,-0.4,-0.1
17.638,0.6,-0.6,-0.2
17.705,0.6,-0.6,-0.2
17.706,0.5,-0.5,-0.2
17.708,0.2,-0.5,-0.2
17.714,-0.4,-0.9,-0.1
17.798,-0.9,-1.2,-0.0
17.8,-1.2,-1.2,0.1
17.801,-0.8,-0.8,0.3
17.804,0.0,0.1,0.4
17.929,-0.0,0.3,0.4
17.933,-0.2,0.4,0.7
17.935,-0.4,0.5,0.9
17.939,-0.7,0.5,1.0
18.017,0.0,0.4,0.9
18.018,0.5,0.5,0.9
18.028,0.4,0.8,0.8
18.031,0.4,0.8,0.8
18.033,-0.1,0.8,0.8
18.096,-0.5,0.7,0.6
18.104,-0.5,0.3,0.3
18.202,0.7,-0.3,-0.0
18.204,0.7,-0.3,-0.2
18.206,0.2,-0.5,-0.3
18.213,0.0,-0.6,-0.3
18.298,0.4,-0.6,-0.3
18.299,0.6,-0.5,-0.3
18.301,0.7,-0.4,-0.3
18.302,0.4,-0.2,-0.3
18.406,0.1,0.1,-0.0
18.408,0.0,0.3,0.1
18.421,0.1,0.5,0.1
18.422,0.2,0.8,0.3
18.506,-0.2,0.5,0.2
18.507,-0.1,0.6,0.1
18.509,0.1,0.8,0.0
18.51,0.2,0.8,-0.0
18.602,0.1,0.7,0.1
18.604,0.0,0.4,0.1
18.607,-0.2,-0.1,0.0
18.608,-0.3,-0.3,-0.0
18.702,-0.3,-0.9,-0.2
18.704,-0.1,-1.1,-0.3
18.705,0.2,-0.9,-0.4
18.707,0.5,-0.5,-0.4
18.813,0.7,-1.2,-0.4
18.83,1.2,-1.1,-0.2
18.831,1.1,-0.9,-0.2
18.833,-0.1,-0.9,-0.4
18.906,-0.3,-0.1,-0.4
18.908,0.3,-0.6,-0.4
18.91,0.6,-0.0,0.5
18.911,-0.3,0.4,1.6
19.002,-1.2,0.2,1.3
19.003,0.3,-0.3,1.4
19.005,-0.1,0.1,-0.3
19.007,0.5,-0.1,0.4
19.104,0.1,0.1,0.3
19.106,-0.4,0.4,0.4
19.107,-0.3,0.4,0.2
19.109,0.6,0.1,0.4
19.218,1.0,0.2,-0.0
19.219,0.9,-0.1,-0.2
19.221,0.4,-0.3,-0.2
19.223,-0.1,-0.4,-0.1
19.301,0.1,-0.6,-0.2
19.302,0.1,-0.6,-0.3
19.304,0.1,-0.6,-0.4
19.309,-0.0,-0.5,-0.5
19.397,-0.2,-0.0,-0.3
19.399,-0.2,0.0,-0.2
19.4,-0.1,0.1,-0.2
19.402,-0.1,0.4,-0.1
19.505,-0.4,0.8,0.2
19.507,-0.4,0.6,0.1
19.508,-0.1,0.7,0.0
19.51,0.1,0.8,0.0
19.602,0.2,0.6,0.0
19.603,0.2,0.6,0.0
19.605,0.3,0.5,0.0
19.607,-0.0,0.1,-0.0
19.701,-0.2,-0.4,-0.2
19.703,0.2,-0.6,-0.3
19.704,0.4,-0.6,-0.3
19.706,0.3,-0.7,-0.4
19.799,-0.0,-0.9,-0.3
19.801,-0.2,-0.8,-0.2
19.807,-0.2,-0.6,-0.1
19.809,-0.0,-0.6,-0.0
19.919,-0.1,-0.7,-0.1
19.921,0.1,-0.4,-0.1
19.922,0.3,0.1,0.1
19.932,0.4,0.4,0.3
20.006,-0.0,0.6,0.5
20.007,-0.1,0.4,0.5
20.01,0.0,0.4,0.4
20.016,0.1,0.6,0.4
20.1,0.1,0.9,0.6
20.105,0.0,0.9,0.6
20.107,0.3,0.8,0.4
20.108,0.4,0.6,0.3
20.203,0.4,0.1,0.0
20.205,0.4,-0.2,-0.2
20.207,0.4,-0.4,-0.3
20.208,0.5,-0.5,-0.4
20.314,0.6,-0.4,-0.3
20.316,0.3,-0.5,-0.2
20.325,0.1,-0.6,-0.2
20.327,0.1,-0.8,-0.2
20.4,0.0,-0.5,-0.3
20.402,0.1,-0.3,-0.3
20.403,0.1,-0.0,-0.3
20.411,0.1,0.2,-0.3
20.501,0.0,0.9,-0.0
20.502,-0.3,0.9,0.1
20.504,-0.4,0.7,0.0
20.507,-0.1,0.6,-0.2
20.609,0.4,0.7,-0.2
20.611,0.3,0.7,-0.1
20.613,0.1,0.5,-0.0
20.614,-0.0,0.3,-0.0
20.711,-0.2,-0.1,-0.1
20.721,-0.1,-0.4,-0.2
20.723,0.1,-0.7,-0.2
20.724,0.3,-0.8,-0.2
20.808,0.3,-0.9,-0.2
20.81,0.3,-0.9,-0.2
20.811,-0.0,-1.0,-0.1
20.816,-0.1,-1.3,-0.1
20.903,-0.1,-1.1,-0.0
20.906,0.1,-0.9,0.1
20.908,0.1,-0.8,0.2
20.911,0.1,-0.8,0.2
21.022,-0.1,-0.1,0.3
21.023,-0.0,0.4,0.4
21.027,0.1,0.6,0.5
21.032,0.0,0.6,0.6
21.123,0.1,0.6,0.4
21.125,0.3,0.9,0.5
21.126,0.3,0.9,0.5
21.135,-0.0,0.9,0.6
21.178,0.2,0.8,0.4
21.18,0.5,0.8,0.3
21.182,0.6,0.8,0.3
21.187,0.5,0.7,0.2
21.295,0.4,0.5,0.1
21.297,0.5,0.4,0.1
21.408,0.5,0.2,0.1
21.409,0.4,-0.0,0.1
21.412,0.6,0.2,0.4
21.415,0.5,0.1,0.3
21.417,-0.0,0.4,0.4
21.51,-0.2,0.5,0.4
21.521,-0.1,1.0,0.1
21.522,0.1,1.4,0.1
21.524,0.2,1.8,0.3
21.6,0.1,1.9,0.4
21.603,-1.2,1.7,0.6
21.605,-0.3,2.2,0.2
21.607,-0.4,1.7,0.4
21.703,-0.3,1.4,0.3
21.707,-0.1,1.1,0.4
21.708,-0.6,1.2,0.3
21.711,-0.9,1.3,0.4
21.805,-0.9,1.3,0.5
21.814,-2.3,0.6,0.5
21.815,-2.6,0.2,0.4
21.817,-1.9,-0.1,0.5
21.897,-1.6,-0.4,0.6
21.903,-2.4,-0.9,0.8
21.907,-1.8,-0.8,0.8
21.909,-1.5,-0.9,1.1
22.016,-2.0,-1.0,1.0
22.019,-1.9,-0.9,1.2
22.021,-2.0,-1.4,1.1
22.023,-2.5,-1.5,1.2
22.101,-2.2,-1.6,1.4
22.107,0.2,-2.1,1.4
22.109,1.1,-1.9,1.3
22.111,1.2,-1.6,1.3
22.212,0.0,-1.3,1.3
22.216,-1.8,-1.2,1.4
22.218,-1.2,-1.2,1.4
22.234,-0.5,-1.4,1.3
22.3,-0.1,-1.2,1.3
22.303,-0.4,-0.9,1.2
22.305,-0.6,-0.9,1.1
22.31,-0.5,-0.8,1.0
22.4,-0.3,-0.6,0.9
22.407,0.1,-0.8,0.8
22.408,0.2,-0.7,0.7
22.41,0.2,-0.6,0.8
22.5,0.3,-0.5,0.8
22.503,0.2,-0.5,0.9
22.505,0.1,-0.4,0.7
22.506,0.4,-0.3,0.9
22.611,0.3,-0.5,0.7
22.619,0.2,-0.6,0.7
22.631,0.2,-0.4,0.6
22.633,0.5,-0.2,0.7
22.696,0.3,-0.2,0.8
22.7,-0.7,-0.4,1.0
22.702,-1.4,-0.9,1.1
22.706,-2.0,-1.4,0.9
22.809,-2.2,-1.1,0.9
22.812,-2.7,-1.4,0.4
22.814,-2.7,-1.1,0.2
22.815,-1.9,-0.8,0.3
22.903,-1.1,-0.6,0.4
22.906,-0.9,-1.1,0.3
22.908,-0.9,-1.2,0.1
22.909,-0.8,-1.3,-0.0
23.02,-0.5,-1.4,-0.1
23.031,-0.0,-1.1,-0.7
23.033,-0.2,-1.5,-0.7
23.098,-1.5,-1.7,0.0
23.099,-2.8,-2.2,0.0
23.106,-0.6,-2.0,0.4
23.107,0.4,-1.9,0.5
23.201,1.3,-1.7,0.5
23.202,1.5,-1.6,0.5
23.206,0.9,-1.9,0.5
23.207,0.6,-1.8,0.4
23.302,0.6,-1.8,0.4
23.304,1.2,-1.9,0.5
23.307,1.0,-1.8,0.9
23.309,1.0,-1.1,1.1
23.415,1.0,-0.8,1.3
23.419,1.7,-1.0,0.8
23.433,3.8,-0.6,1.2
23.435,3.1,-0.7,1.5
23.501,1.6,-1.0,1.5
23.503,0.2,-1.0,1.6
23.506,0.2,-1.0,1.0
23.511,0.8,-1.3,0.9
23.596,1.2,-1.3,0.6
23.598,1.4,-1.2,0.4
23.601,1.0,-1.4,0.3
23.603,1.0,-1.5,0.2
23.696,1.0,-1.5,0.1
23.698,1.1,-1.3,0.1
23.707,1.0,-0.9,0.1
23.708,0.8,-0.7,0.1
23.806,0.4,-0.5,0.1
23.818,0.0,-0.3,0.2
23.829,0.8,-0.3,0.4
23.831,0.8,-0.0,0.6
23.906,0.8,0.5,0.8
23.908,0.2,0.7,0.9
23.911,0.1,0.3,0.8
23.912,0.6,0.4,0.5
24.001,1.1,0.8,0.3
24.003,1.0,0.8,0.3
24.009,0.1,0.6,0.5
24.011,-0.0,0.3,0.4
24.097,0.1,0.3,0.5
24.099,-0.1,0.0,0.3
24.113,0.3,-0.5,0.1
24.115,0.3,-0.6,0.1
24.214,0.2,-0.7,0.1
24.215,0.2,-0.7,0.1
24.218,0.3,-0.7,0.1
24.22,0.2,-0.7,0.2
24.303,0.2,-0.7,0.2
24.305,0.3,-0.7,0.2
24.308,0.2,-0.6,0.2
24.31,0.2,-0.5,0.2
24.401,0.4,-0.3,0.3
24.403,0.7,0.2,0.4
24.406,0.2,0.7,0.7
24.408,-0.0,0.3,0.6
24.509,0.2,0.1,0.5
24.511,0.6,0.3,0.4
24.514,0.9,0.6,0.3
24.533,0.7,0.7,0.4
24.607,0.2,0.6,0.4
24.609,-0.1,0.5,0.3
24.612,0.2,0.4,0.2
24.698,0.3,0.3,0.2
24.699,0.1,0.2,0.1
24.704,0.1,-0.1,0.0
24.708,0.2,-0.3,-0.0
24.71,0.2,-0.3,-0.0
24.8,0.2,-0.4,-0.1
24.802,0.3,-0.4,0.0
24.807,-0.2,-0.1,-0.5
24.911,-0.1,-0.7,0.5
24.913,-0.2,-0.3,-0.9
24.914,0.1,-0.5,0.6
24.926,-0.6,-0.7,0.3
25.0,-0.2,0.5,-0.2
25.005,-0.1,1.1,0.0
25.007,-0.3,1.0,0.1
25.01,-0.2,0.7,-0.2
25.102,0.1,0.8,-0.2
25.103,0.5,0.9,-0.2
25.105,0.5,1.1,-0.1
25.108,-0.3,0.7,0.0
25.2,-0.4,0.5,0.1
25.201,-0.1,0.2,0.1
25.205,0.0,0.1,0.1
25.209,-0.0,-0.5,-0.1
25.313,0.0,-0.9,-0.1
25.317,-0.1,-0.8,-0.1
25.319,-0.0,-0.9,-0.1
25.335,-0.2,-1.4,0.0
25.401,0.0,-1.1,0.1
25.403,-0.0,-0.8,0.1
25.404,-0.1,-0.9,0.0
25.407,-0.1,-0.6,0.1
25.501,0.0,-0.4,0.2
25.503,0.0,0.0,0.4
25.505,-0.0,0.5,0.5
25.508,-0.4,0.7,0.6
25.603,-0.4,0.4,0.5
25.604,-0.2,0.5,0.4
25.606,0.1,0.8,0.3
25.609,-0.0,0.8,0.4
25.708,-0.3,0.6,0.3
25.71,-0.4,0.4,0.2
25.719,-0.1,0.3,0.2
25.722,-0.0,-0.1,-0.0
25.799,0.0,-0.5,-0.2
25.801,0.1,-0.6,-0.3
25.803,0.2,-0.6,-0.3
25.806,0.3,-0.6,-0.2
25.896,0.1,-0.8,-0.2
25.897,0.2,-0.8,-0.1
25.904,0.3,-0.6,-0.1
25.907,0.2,-0.3,-0.1
25.996,0.1,-0.2,-0.1
25.997,-0.0,-0.1,-0.1
25.999,-0.1,0.1,-0.1
26.002,-0.4,1.1,0.1
26.114,-0.4,1.0,0.2
26.127,-0.2,0.8,0.0
26.129,0.1,0.8,-0.2
26.132,0.6,1.0,-0.3
26.197,0.4,0.9,-0.1
26.199,0.2,0.7,0.0
26.201,-0.2,0.5,0.1
26.208,-0.1,-0.0,-0.0
26.299,-0.0,-0.3,0.0
26.301,0.0,-0.5,-0.1
26.31,0.3,-0.7,-0.2
26.399,0.4,-1.0,-0.2
26.401,0.3,-1.0,-0.1
26.406,0.3,-1.1,0.0
26.408,0.2,-1.0,0.1
26.505,0.0,-0.8,0.1
26.521,0.0,-0.5,0.2
26.531,0.2,-0.4,0.2
26.532,0.3,-0.1,0.3
26.605,0.6,0.8,0.5
26.607,0.3,0.9,0.6
26.608,-0.0,0.5,0.5
26.61,-0.1,0.4,0.4
26.705,0.4,1.0,0.2
26.707,0.3,1.1,0.2
26.708,0.0,1.1,0.3
26.71,-0.1,0.9,0.3
26.812,0.2,0.8,0.2
26.814,0.4,0.7,0.2
26.816,0.4,0.7,0.0
26.817,0.3,0.4,-0.0
26.895,0.1,-0.2,-0.1
26.897,0.1,-0.3,-0.1
26.898,0.2,-0.2,-0.0
26.906,0.2,-0.1,0.1
26.999,-0.4,-0.1,-0.0
27.004,-0.3,0.1,0.0
27.006,-0.3,0.3,0.1
27.007,-0.4,0.5,0.1
27.093,-0.2,0.9,0.2
27.095,-0.5,1.1,0.3
27.096,-0.7,1.3,0.2
27.098,-0.8,1.5,0.3
27.21,-1.0,1.7,0.4
27.211,-0.8,1.7,0.4
27.214,-0.0,1.8,0.4
27.215,0.2,1.3,0.7
27.299,0.1,1.2,0.8
27.301,-0.4,0.9,0.6
27.302,-0.6,0.8,0.4
27.304,-0.4,0.8,0.6
27.395,-0.1,0.8,0.5
27.397,-0.2,0.7,0.3
27.398,-0.2,0.4,0.3
27.4,-0.5,0.0,0.1
27.496,0.1,0.3,0.0
27.497,0.1,0.2,-0.1
27.499,-0.0,0.3,-0.1
27.5,-0.1,0.4,0.1
27.606,-0.1,0.6,0.4
27.614,-0.4,0.5,0.5
27.615,-0.6,0.4,0.5
27.625,-0.6,0.5,0.7
27.696,-0.7,0.0,0.6
27.701,-0.6,-0.0,0.7
27.703,-0.0,-0.1,0.7
27.704,0.3,-0.4,0.6
27.8,0.1,-0.3,0.6
27.801,-0.0,-0.3,0.8
27.805,-0.2,-0.3,0.9
27.807,-0.3,-0.4,1.0
27.895,-0.0,-0.5,1.1
27.897,0.0,-0.4,1.2
27.898,-0.2,-0.3,1.3
27.9,-0.6,-0.4,1.4
27.982,-1.1,-0.2,1.4
27.989,-1.1,-0.2,1.4
27.999,-1.1,-0.0,1.5
28.0,-1.2,0.0,1.4
28.097,-1.2,-0.0,1.3
28.1,-1.2,-0.3,1.0
28.106,-1.1,-0.6,1.0
28.209,-1.1,-0.4,0.9
28.212,-0.9,-0.4,0.8
28.217,-1.0,-0.3,0.6
28.218,-1.0,-0.2,0.6
28.22,-0.9,-0.1,0.5
28.297,-0.4,0.1,0.4
28.304,-0.4,-0.4,0.0
28.307,-0.4,-0.0,0.3
28.309,-0.5,0.1,0.2
28.406,-0.3,-0.0,0.0
28.416,-0.2,-0.0,0.0
28.418,-0.2,0.0,0.0
28.427,-0.3,0.1,0.0
28.497,-0.9,0.3,0.3
28.499,-1.1,0.2,0.3
28.501,-1.2,-0.3,0.0
28.502,-1.1,-0.7,-0.1
28.597,-1.2,-1.4,-0.4
28.599,-0.8,-1.6,-0.4
28.6,-0.2,-1.8,-0.4
28.602,1.0,-1.8,-0.2
28.701,2.9,-2.2,0.2
28.703,3.4,-2.0,0.5
28.705,3.7,-1.8,0.5
28.706,3.5,-1.2,0.6
28.821,3.5,-0.7,0.6
28.824,3.0,-0.5,0.4
28.826,2.5,-0.4,0.4
28.828,2.1,-0.3,0.3
28.897,1.3,-0.3,0.2
28.898,1.1,-0.2,0.2
28.903,1.1,-0.3,0.1
28.905,1.0,-0.3,0.1
28.997,1.2,-0.2,0.2
28.998,1.2,-0.2,0.3
29.0,1.0,-0.2,0.4
29.001,0.9,-0.2,0.4
29.135,0.5,-0.2,0.5
29.137,0.4,-0.3,0.6
29.143,0.4,-0.3,0.6
29.144,0.3,-0.3,0.7
29.24,0.0,-0.1,0.8
29.242,0.0,0.0,0.8
29.246,0.1,-0.0,0.8
29.248,0.3,-0.0,0.7
29.297,-0.1,-0.0,0.6
29.299,-0.1,0.0,0.5
29.404,-0.0,0.0,0.5
29.406,0.1,-0.0,0.4
29.409,0.1,0.0,0.3
29.411,0.1,0.0,0.2
29.415,-0.0,0.1,0.2
29.416,0.1,0.1,0.2
29.504,0.3,0.1,0.2
29.506,0.3,0.1,0.2
29.507,0.2,0.1,0.2
29.518,0.1,0.1,0.1
29.595,0.2,0.0,0.1
29.597,0.2,0.0,0.1
29.602,0.3,0.0,0.1
29.695,0.3,-0.0,0.1
29.698,0.1,0.0,0.0
29.704,0.1,0.0,0.0
29.706,0.1,0.0,-0.0
29.796,0.0,0.0,-0.0
29.808,0.0,-0.0,-0.0
29.81,0.1,-0.0,-0.0
29.811,0.0,-0.0,-0.0
29.89,0.0,-0.0,-0.0
29.9,1.7,0.0,-0.4
29.901,-0.2,-0.7,0.0
29.912,-0.1,0.6,0.0
