gyro_time_list,gyro_x_list,gyro_y_list,gyro_z_list
0.0,0.1,0.1,0.1
0.005,-0.0,0.1,0.2
0.007,-0.1,0.1,0.1
0.102,-0.2,0.2,0.1
0.109,-0.1,0.2,0.1
0.111,0.1,-0.3,-0.1
0.112,0.1,-0.1,-0.0
0.206,-0.0,-0.1,0.0
0.21,-0.1,0.1,0.0
0.211,-0.1,0.1,-0.0
0.213,-0.1,0.1,-0.1
0.343,-0.1,0.1,-0.1
0.347,-0.2,0.1,-0.1
0.357,-0.2,0.2,-0.0
0.358,-0.2,0.2,0.0
0.437,-0.4,0.2,-0.0
0.449,-0.9,0.4,0.0
0.451,-1.2,0.7,0.1
0.453,-1.5,0.9,0.1
0.454,-1.8,1.2,0.2
0.533,-2.5,1.5,0.2
0.535,-3.1,1.6,0.2
0.537,-3.7,1.7,0.3
0.538,-3.8,2.0,0.5
0.633,-2.8,2.2,1.0
0.635,-2.3,2.0,1.3
0.637,-2.0,2.0,1.5
0.638,-1.8,2.2,1.6
0.758,-1.6,2.3,2.0
0.76,-1.6,2.1,2.1
0.761,-1.6,2.0,2.1
0.771,-1.7,2.0,2.1
0.812,-2.0,2.0,2.4
0.813,-2.1,2.0,2.6
0.815,-2.1,1.9,2.7
0.817,-2.3,1.8,2.7
0.937,-2.2,1.3,2.7
0.939,-1.9,1.1,2.5
0.941,-1.6,0.8,2.2
1.061,-1.4,0.6,1.8
1.064,-1.2,0.4,1.0
1.066,-1.1,0.3,0.7
1.078,-1.1,0.3,0.3
1.08,-1.2,0.2,0.1
1.148,-1.0,0.0,-0.3
1.152,-0.9,-0.0,-0.4
1.163,-0.8,-0.1,-0.4
1.164,-0.7,-0.1,-0.5
1.229,-0.5,-0.0,-0.4
1.23,-0.4,-0.0,-0.4
1.232,-0.2,0.0,-0.3
1.335,-0.1,-0.0,-0.3
1.338,0.2,-0.0,-0.2
1.339,0.4,0.1,-0.2
1.341,0.8,0.1,-0.2
1.343,1.2,0.1,-0.1
1.434,1.8,-0.0,-0.1
1.435,1.7,-0.2,-0.1
1.437,1.2,-0.5,-0.3
1.439,0.4,-0.5,-0.5
1.542,-1.1,-0.6,-0.9
1.552,-1.5,-0.7,-1.0
1.553,-1.6,-0.8,-1.0
1.555,-1.5,-0.8,-1.0
1.629,-1.0,-0.9,-1.1
1.63,-0.7,-0.9,-1.1
1.636,-0.6,-0.8,-1.0
1.638,-0.4,-0.8,-0.9
1.736,0.0,-0.7,-0.7
1.737,0.0,-0.7,-0.6
1.739,-0.1,-0.7,-0.4
1.741,-0.2,-0.7,-0.3
1.808,-0.4,-0.6,-0.0
1.809,-0.5,-0.7,0.1
1.811,-0.5,-0.6,0.2
1.813,-0.6,-0.6,0.3
1.95,-0.7,-0.7,0.4
1.952,-0.7,-0.7,0.4
2.049,-0.7,-0.7,0.5
2.051,-0.7,-0.7,0.6
2.06,-0.4,-0.6,0.7
2.062,-0.2,-0.5,0.8
2.063,-0.2,-0.3,0.9
2.134,-0.3,-0.1,1.0
2.137,-0.2,0.3,1.2
2.139,-0.3,0.5,1.3
2.14,-0.3,0.6,1.4
2.235,-0.4,0.8,1.5
2.244,-0.4,1.0,1.4
2.245,-0.2,1.0,1.4
2.247,0.0,1.0,1.3
2.33,0.2,1.0,1.3
2.341,0.3,0.9,1.1
2.343,0.2,0.8,0.9
2.345,0.0,0.7,0.7
2.43,-0.1,0.6,0.5
2.44,-0.2,0.5,0.1
2.442,-0.1,0.4,-0.1
2.443,0.1,0.4,-0.2
2.505,0.3,0.3,-0.3
2.509,0.8,0.2,-0.6
2.511,1.0,0.1,-0.7
2.512,1.1,-0.1,-0.9
2.627,1.0,-0.2,-1.0
2.63,0.9,-0.3,-1.4
2.632,0.9,-0.4,-1.5
2.745,1.0,-0.4,-1.5
2.754,1.0,-0.5,-1.5
2.758,0.9,-0.6,-1.4
2.759,0.8,-0.6,-1.4
2.761,0.6,-0.6,-1.3
2.835,0.5,-0.7,-1.3
2.842,0.0,-0.6,-1.3
2.843,-0.2,-0.6,-1.2
2.845,-0.3,-0.5,-1.2
2.929,-0.3,-0.4,-1.0
2.933,0.3,-0.1,-0.7
2.934,0.7,-0.1,-0.5
2.936,0.9,0.0,-0.4
3.046,1.0,0.1,-0.4
3.055,0.9,0.3,-0.2
3.056,0.8,0.3,-0.1
3.066,0.7,0.4,0.0
3.133,0.6,0.4,0.2
3.141,0.4,0.6,0.5
3.142,0.2,0.6,0.6
3.144,0.1,0.6,0.8
3.206,-0.1,0.7,0.9
3.209,-0.3,0.8,1.2
3.211,-0.4,0.8,1.4
3.213,-0.5,0.8,1.5
3.323,-0.7,0.7,1.6
3.326,-0.7,0.6,1.6
3.443,-0.8,0.5,1.5
3.444,-0.9,0.4,1.3
3.446,-0.8,0.4,1.2
3.455,-0.6,0.1,0.9
3.464,-0.5,-0.1,0.8
3.466,-0.6,-0.3,0.7
3.53,-0.8,-0.4,0.6
3.538,-1.3,-0.6,0.3
3.54,-1.6,-0.6,0.1
3.541,-1.7,-0.6,-0.1
3.604,-1.6,-0.6,-0.3
3.607,-1.3,-0.7,-0.5
3.609,-1.1,-0.7,-0.6
3.728,-1.0,-0.6,-0.6
3.729,-0.8,-0.5,-0.7
3.733,-0.2,-0.3,-0.6
3.857,0.2,-0.2,-0.6
3.865,0.4,-0.0,-0.5
3.866,0.6,0.1,-0.5
3.878,1.0,0.4,-0.4
3.879,1.2,0.4,-0.3
3.929,1.4,0.5,-0.2
3.938,1.5,0.5,-0.1
3.941,1.4,0.5,0.0
3.942,1.2,0.5,0.1
4.03,0.9,0.6,0.1
4.032,0.7,0.6,0.1
4.04,0.5,0.7,0.2
4.041,0.6,0.7,0.2
4.1,0.7,0.8,0.3
4.102,0.7,0.8,0.4
4.105,0.5,1.0,0.7
4.218,0.5,1.0,0.8
4.22,0.6,0.8,0.9
4.226,0.8,0.7,0.8
4.238,1.0,0.1,0.4
4.305,0.9,0.0,0.0
4.306,0.7,-0.0,-0.3
4.308,0.5,-0.2,-0.6
4.311,-0.0,-0.6,-1.0
4.404,-0.3,-0.7,-1.2
4.405,-0.5,-0.7,-1.4
4.408,-0.7,-0.7,-1.5
4.411,-0.5,-0.6,-1.6
4.506,-0.3,-0.5,-1.6
4.507,-0.0,-0.5,-1.6
4.509,0.2,-0.4,-1.5
4.512,0.5,-0.3,-1.4
4.618,0.5,-0.3,-1.3
4.62,0.4,-0.3,-1.2
4.629,0.3,-0.2,-1.1
4.637,0.3,-0.1,-0.8
4.716,0.3,0.0,-0.7
4.719,0.3,0.1,-0.5
4.72,0.4,0.2,-0.3
4.723,0.5,0.4,0.1
4.831,0.6,0.5,0.3
4.833,0.7,0.5,0.5
4.835,0.8,0.6,0.7
4.842,1.1,0.7,1.0
5.02,1.2,0.7,1.1
5.021,1.3,0.7,1.2
5.023,1.3,0.8,1.2
5.026,1.0,0.7,1.3
5.033,0.7,0.8,1.3
5.076,0.4,0.9,1.4
5.078,0.1,0.7,1.5
5.081,-0.1,0.4,1.6
5.083,-0.1,0.3,1.4
5.137,-0.1,0.1,1.2
5.139,-0.2,-0.1,0.8
5.142,-0.2,-0.4,0.2
5.143,-0.2,-0.4,-0.1
5.228,-0.1,-0.4,-0.3
5.231,-0.1,-0.5,-0.5
5.234,-0.2,-0.5,-0.6
5.235,-0.3,-0.6,-0.6
5.334,-0.2,-0.6,-0.7
5.336,-0.0,-0.5,-0.8
5.339,0.5,-0.3,-1.0
5.348,0.7,-0.3,-1.1
5.407,0.9,-0.3,-1.1
5.409,1.0,-0.2,-1.2
5.412,0.8,-0.1,-1.1
5.528,0.7,-0.0,-1.1
5.529,0.7,0.1,-1.0
5.531,0.7,0.2,-0.9
5.63,0.9,0.4,-0.5
5.632,1.0,0.5,-0.4
5.633,1.2,0.6,-0.3
5.635,1.2,0.7,-0.1
5.642,1.4,0.8,0.1
5.716,1.5,0.9,0.2
5.718,1.7,0.9,0.3
5.719,1.7,0.9,0.3
5.744,1.6,0.9,0.3
5.799,1.4,0.9,0.3
5.801,1.1,0.9,0.3
5.802,0.9,0.9,0.3
5.907,0.5,0.7,0.2
5.911,0.3,0.7,0.2
5.913,0.3,0.7,0.1
5.915,0.5,0.5,0.0
6.031,1.0,0.2,-0.2
6.032,1.2,0.0,-0.4
6.034,1.2,-0.1,-0.6
6.036,1.0,-0.1,-0.6
6.16,0.8,-0.2,-0.7
6.162,0.8,-0.4,-0.7
6.164,0.7,-0.4,-0.8
6.165,0.6,-0.4,-0.8
6.179,0.4,-0.5,-1.1
6.239,0.3,-0.5,-1.2
6.241,0.2,-0.5,-1.2
6.243,0.1,-0.4,-1.3
6.246,-0.2,-0.3,-1.3
6.323,-0.2,-0.2,-1.2
6.325,-0.2,-0.1,-1.1
6.328,-0.1,-0.0,-0.9
6.331,0.2,0.1,-0.5
6.437,0.3,0.2,-0.3
6.438,0.4,0.3,-0.1
6.44,0.4,0.3,0.1
6.444,0.4,0.5,0.3
6.542,0.4,0.5,0.5
6.544,0.4,0.6,0.6
6.553,0.4,0.6,0.7
6.562,0.3,0.8,0.9
6.607,0.3,0.8,1.0
6.612,0.3,0.8,1.2
6.613,0.4,0.9,1.3
6.617,0.6,0.9,1.5
6.734,0.6,0.9,1.6
6.737,0.4,0.8,1.6
6.739,0.3,0.7,1.6
6.811,0.1,0.7,1.4
6.812,0.1,0.4,1.3
6.814,0.1,0.2,1.1
6.815,0.0,0.0,0.9
6.918,-0.4,-0.3,0.2
6.92,-0.6,-0.3,-0.2
6.93,-0.9,-0.5,-0.5
6.938,-1.0,-0.7,-0.7
7.027,-1.3,-1.0,-1.0
7.03,-1.4,-1.1,-1.2
7.033,-1.5,-1.0,-1.3
7.035,-1.6,-1.0,-1.4
7.11,-1.4,-0.9,-1.5
7.112,-1.3,-0.9,-1.4
7.113,-1.0,-0.8,-1.3
7.115,-0.8,-0.7,-1.2
7.212,-0.5,-0.6,-1.0
7.213,-0.4,-0.5,-0.9
7.215,-0.4,-0.4,-0.7
7.217,-0.4,-0.3,-0.5
7.315,-0.4,-0.2,-0.1
7.327,-0.3,-0.1,0.2
7.337,-0.4,0.0,0.4
7.339,-0.4,0.1,0.6
7.409,-0.1,0.2,1.0
7.41,0.0,0.3,1.2
7.412,0.1,0.4,1.3
7.415,0.1,0.5,1.4
7.506,0.2,0.5,1.5
7.508,0.1,0.5,1.6
7.509,0.0,0.5,1.6
7.512,-0.2,0.6,1.6
7.607,-0.5,0.6,1.6
7.608,-0.6,0.7,1.6
7.61,-0.5,0.8,1.7
7.612,-0.1,0.8,1.7
7.729,0.8,0.5,1.5
7.731,1.1,0.4,1.2
7.733,1.2,0.3,0.8
7.734,1.3,0.3,0.3
7.834,1.2,-0.1,-0.5
7.836,1.0,-0.3,-0.9
7.841,0.9,-0.5,-1.2
7.842,0.8,-0.6,-1.4
7.933,0.5,-0.7,-1.8
7.974,0.4,-0.8,-1.9
7.976,0.3,-0.8,-2.1
7.985,0.3,-0.8,-2.2
8.035,0.2,-0.8,-2.3
8.037,0.2,-0.7,-2.3
8.038,0.2,-0.7,-2.3
8.045,0.3,-0.7,-2.1
8.134,0.3,-0.6,-1.8
8.135,0.2,-0.6,-1.7
8.137,0.0,-0.5,-1.5
8.138,-0.2,-0.6,-1.4
8.236,-0.7,-0.5,-1.1
8.238,-0.7,-0.3,-0.9
8.242,-0.6,-0.2,-0.7
8.244,-0.3,-0.0,-0.5
8.3,0.3,0.3,0.1
8.301,0.5,0.4,0.4
8.307,0.6,0.5,0.8
8.309,0.6,0.6,1.1
8.441,0.5,0.9,1.8
8.443,0.3,0.9,2.1
8.445,0.0,1.0,2.5
8.528,-0.4,1.0,2.8
8.532,-0.5,1.1,3.2
8.533,-0.3,1.1,3.3
8.539,0.2,1.1,3.3
8.54,0.6,0.9,3.1
8.612,1.0,0.4,2.5
8.613,0.7,-0.0,2.0
8.615,0.2,-0.2,1.4
8.617,-0.3,-0.4,0.9
8.701,-1.0,-0.5,-0.3
8.703,-1.2,-0.6,-0.7
8.704,-1.3,-0.6,-1.0
8.818,-1.3,-0.6,-1.2
8.822,-0.9,-0.6,-1.5
8.823,-0.6,-0.6,-1.6
8.833,-0.4,-0.5,-1.6
8.925,-0.2,-0.5,-1.6
8.929,-0.1,-0.4,-1.6
8.935,-0.0,-0.3,-1.5
8.937,0.1,-0.2,-1.5
9.032,0.2,-0.2,-1.5
9.035,0.3,-0.1,-1.4
9.037,0.4,0.0,-1.3
9.038,0.5,0.2,-1.2
9.04,0.6,0.3,-1.1
9.133,1.0,0.5,-0.8
9.135,1.3,0.7,-0.7
9.137,1.6,0.8,-0.6
9.138,1.8,0.9,-0.5
9.249,2.1,1.1,-0.3
9.262,2.1,1.1,-0.2
9.263,1.9,1.2,0.0
9.265,1.7,1.3,0.3
9.342,1.3,1.3,0.9
9.344,1.2,1.3,1.1
9.348,1.1,1.4,1.4
9.35,1.2,1.5,1.7
9.402,1.5,1.7,2.0
9.405,1.8,1.5,2.0
9.412,2.2,1.1,1.8
9.414,2.4,0.9,1.5
9.519,2.7,0.5,0.6
9.521,2.5,0.1,0.2
9.522,2.0,-0.3,-0.2
9.615,1.3,-0.5,-0.4
9.626,0.1,-1.0,-0.8
9.628,-0.5,-1.1,-0.9
9.633,-0.9,-1.1,-1.1
9.712,-1.2,-1.1,-1.2
9.719,-0.9,-1.0,-1.4
9.72,-0.6,-0.9,-1.4
9.722,-0.2,-0.7,-1.4
9.802,0.1,-0.6,-1.5
9.815,0.7,-0.4,-1.4
9.817,0.8,-0.4,-1.4
9.818,0.9,-0.3,-1.4
9.903,0.9,-0.2,-1.3
9.911,0.8,0.0,-1.1
9.913,0.7,0.1,-1.0
10.009,0.6,0.3,-0.9
10.01,0.6,0.4,-0.7
10.03,0.8,0.7,-0.4
10.032,1.0,0.8,-0.2
10.155,1.2,0.9,-0.1
10.158,1.4,1.0,0.1
10.162,1.7,1.1,0.2
10.165,1.6,1.1,0.3
10.237,1.4,1.2,0.3
10.238,1.3,1.2,0.4
10.242,1.1,1.2,0.5
10.243,1.1,1.1,0.6
10.245,0.9,1.1,0.6
10.247,0.8,1.0,0.6
10.316,0.5,1.0,0.7
10.317,0.3,0.9,0.7
10.319,-0.0,0.8,0.7
10.328,-0.3,0.7,0.8
10.405,-0.6,0.6,0.9
10.407,-0.5,0.5,1.0
10.53,-0.3,0.3,1.0
10.531,-0.2,0.1,1.0
10.537,-0.0,-0.1,0.6
10.539,0.0,-0.1,0.4
10.634,0.2,-0.2,0.2
10.636,0.2,-0.3,0.0
10.639,0.1,-0.7,-0.2
10.641,-0.2,-0.9,-0.3
10.642,-0.5,-1.0,-0.5
10.74,-0.7,-1.0,-0.7
10.753,-1.0,-1.1,-1.1
10.754,-1.0,-1.1,-1.2
10.767,-1.1,-1.1,-1.3
10.833,-1.2,-1.3,-1.3
10.836,-1.5,-1.5,-1.0
10.841,-1.6,-1.3,-0.9
10.843,-1.6,-1.1,-0.9
10.929,-1.4,-0.8,-0.8
10.934,-0.5,-0.3,-0.4
10.936,-0.2,-0.1,-0.2
10.937,-0.0,0.1,-0.0
11.003,0.1,0.2,0.1
11.007,0.3,0.4,0.4
11.008,0.4,0.5,0.6
11.013,0.5,0.6,0.8
11.141,0.6,0.6,1.0
11.144,0.9,0.7,1.1
11.153,0.8,0.7,1.0
11.231,0.7,0.8,1.0
11.232,0.6,0.8,0.9
11.235,0.3,0.9,1.0
11.237,0.3,0.8,1.0
11.239,0.3,0.8,1.0
11.325,0.2,0.8,1.0
11.328,0.2,0.9,1.1
11.33,0.3,0.8,1.2
11.332,0.5,0.6,1.1
11.41,0.7,0.5,0.9
11.413,1.1,0.4,0.3
11.414,1.3,0.4,-0.1
11.416,1.4,0.3,-0.4
11.506,1.5,0.1,-0.7
11.522,1.2,-0.5,-1.2
11.607,0.8,-0.6,-1.5
11.608,0.6,-0.6,-1.7
11.613,0.5,-0.7,-1.9
11.617,0.2,-0.8,-2.1
11.699,0.1,-0.8,-2.2
11.701,0.1,-0.8,-2.2
11.702,0.1,-0.8,-2.2
11.706,0.3,-0.6,-2.0
11.826,0.4,-0.6,-1.8
11.829,0.4,-0.5,-1.6
11.831,0.4,-0.4,-1.4
11.837,0.5,-0.2,-0.9
11.941,0.5,-0.1,-0.7
11.943,0.5,-0.0,-0.5
11.944,0.5,0.0,-0.3
11.955,0.5,0.2,-0.0
11.957,0.5,0.3,0.1
11.959,0.5,0.4,0.2
12.059,0.5,0.5,0.4
12.062,0.7,0.6,0.9
12.063,0.7,0.7,1.2
12.065,0.5,0.8,1.4
12.144,0.1,0.8,1.5
12.147,-0.2,0.9,1.7
12.149,-0.3,0.9,1.6
12.211,-0.4,0.8,1.6
12.213,-0.5,0.8,1.5
12.216,-0.5,0.4,1.2
12.218,-0.6,0.1,1.0
12.33,-0.8,-0.1,0.9
12.34,-1.0,-0.2,0.7
12.344,-1.7,-0.6,0.3
12.431,-1.9,-0.7,0.2
12.433,-2.0,-0.7,0.1
12.434,-2.0,-0.7,0.0
12.44,-1.7,-0.7,-0.0
12.442,-1.4,-0.6,-0.0
12.525,-1.1,-0.6,-0.0
12.526,-0.9,-0.6,-0.0
12.529,-0.8,-0.5,-0.1
12.531,-0.8,-0.4,-0.1
12.637,-0.8,-0.4,-0.1
12.639,-0.8,-0.4,-0.1
12.647,-0.7,-0.2,-0.1
12.649,-0.5,-0.1,-0.0
12.724,-0.3,0.0,0.0
12.726,-0.2,0.1,0.1
12.733,-0.0,0.2,0.2
12.735,0.1,0.3,0.2
12.822,0.1,0.4,0.2
12.827,0.2,0.4,0.2
12.83,0.4,0.6,0.2
12.833,0.6,0.6,0.2
12.899,0.8,0.7,0.3
12.901,1.0,0.8,0.4
12.904,1.3,0.6,0.5
12.911,1.1,0.5,0.3
13.091,0.9,0.5,-0.0
13.093,0.9,0.4,-0.3
13.096,1.4,0.3,-0.8
13.152,1.5,0.0,-1.0
13.154,1.3,-0.1,-1.1
13.168,1.0,-0.2,-1.2
13.171,0.6,-0.3,-1.3
13.173,0.6,-0.3,-1.3
13.237,0.7,-0.3,-1.3
13.239,0.8,-0.3,-1.3
13.242,0.9,-0.3,-1.3
13.308,0.9,-0.3,-1.3
13.31,0.8,-0.3,-1.3
13.311,0.7,-0.2,-1.3
13.314,0.7,-0.1,-1.1
13.316,0.7,-0.0,-1.1
13.408,0.7,0.0,-1.0
13.41,0.6,0.1,-0.9
13.502,0.5,0.3,-0.7
13.504,0.5,0.4,-0.6
13.509,0.5,0.5,-0.5
13.51,0.6,0.6,-0.5
13.604,0.7,0.6,-0.4
13.606,0.6,0.7,-0.4
13.608,0.5,0.7,-0.3
13.609,0.4,0.8,-0.3
13.704,0.5,0.8,-0.2
13.705,0.5,0.8,-0.2
13.707,0.5,0.8,-0.1
13.709,0.5,0.8,-0.1
13.814,0.6,0.8,-0.1
13.816,0.7,0.9,-0.1
13.817,0.8,0.9,-0.1
13.824,0.8,1.0,0.0
13.903,0.9,1.2,0.3
13.905,1.0,1.2,0.3
13.91,1.1,1.2,0.3
13.911,1.3,1.3,0.1
14.042,1.7,1.3,-0.2
14.044,1.9,1.4,-0.4
14.045,2.2,1.4,-0.4
14.047,2.4,1.3,-0.5
14.14,2.6,1.1,-0.5
14.142,2.4,0.9,-0.5
14.144,2.2,0.7,-0.4
14.146,1.9,0.5,-0.3
14.149,1.4,0.2,-0.3
14.232,1.3,0.1,-0.3
14.233,1.1,0.0,-0.3
14.243,0.9,0.0,-0.3
14.246,0.8,0.1,-0.3
14.323,0.9,0.2,-0.3
14.325,1.0,0.3,-0.3
14.327,1.1,0.3,-0.3
14.336,0.9,0.4,-0.3
14.428,0.8,0.4,-0.3
14.429,0.8,0.5,-0.3
14.431,0.9,0.6,-0.3
14.434,1.0,0.7,-0.3
14.532,1.0,0.8,-0.4
14.533,1.0,0.8,-0.5
14.535,1.1,0.8,-0.6
14.538,1.1,0.9,-0.7
14.624,1.2,0.9,-0.8
14.636,1.2,0.9,-0.8
14.643,1.1,0.9,-0.8
14.646,0.9,0.9,-1.0
14.729,0.8,0.9,-1.0
14.731,0.9,1.0,-1.0
14.733,1.1,1.1,-1.1
14.833,1.3,1.3,-1.2
14.835,1.6,1.4,-1.3
14.84,2.2,1.5,-1.3
14.842,2.8,1.5,-1.4
14.845,3.3,1.4,-1.5
14.938,3.3,1.1,-1.8
14.939,2.8,0.9,-2.1
14.941,2.3,0.8,-2.4
14.944,1.7,0.6,-2.7
15.032,1.8,0.7,-2.6
15.033,2.4,0.7,-2.5
15.035,2.9,0.6,-2.3
15.038,2.4,0.4,-2.3
15.142,2.2,0.5,-2.3
15.146,2.2,0.4,-2.2
15.148,2.3,0.2,-2.1
15.152,2.2,-0.0,-2.0
15.224,2.2,-0.1,-1.8
15.226,2.2,-0.2,-1.7
15.236,2.3,-0.2,-1.5
15.24,2.3,-0.1,-1.1
15.31,2.1,-0.1,-0.9
15.312,2.3,0.2,-0.5
15.315,2.2,0.3,-0.2
15.402,2.0,0.3,0.3
15.404,1.3,0.3,0.4
15.405,1.4,0.3,0.5
15.411,1.7,0.4,0.7
15.507,1.8,0.4,0.9
15.509,1.3,0.5,0.9
15.516,0.9,0.7,1.0
15.518,0.7,0.9,1.1
15.629,0.1,0.9,1.1
15.63,-0.1,0.8,1.0
15.632,-0.2,0.8,0.8
15.634,-0.1,0.8,0.6
15.738,0.7,0.7,0.5
15.745,0.8,0.6,0.5
15.746,0.5,0.5,0.5
15.748,-0.0,0.5,0.5
15.828,-0.5,0.4,0.5
15.841,-0.3,0.4,0.5
15.843,-0.2,0.4,0.5
15.845,-0.2,0.4,0.5
15.926,-0.6,0.4,0.5
15.928,-0.1,0.3,0.5
15.929,-0.1,0.3,0.5
15.931,-0.4,0.3,0.6
16.022,-0.4,0.3,0.6
16.024,-0.3,0.3,0.6
16.025,-0.2,0.3,0.5
16.027,-0.1,0.3,0.6
16.112,0.3,0.4,0.6
16.126,0.4,0.4,0.6
16.128,0.5,0.5,0.6
16.141,0.4,0.5,0.6
16.213,0.2,0.5,0.4
16.214,0.1,0.4,0.4
16.216,0.2,0.4,0.3
16.217,0.3,0.4,0.3
16.304,0.0,0.4,0.3
16.305,-0.4,0.5,0.3
16.307,-0.4,0.5,0.3
16.312,-0.3,0.5,0.3
16.419,-0.4,0.6,0.2
16.42,-0.4,0.7,0.1
16.422,-0.3,0.6,0.1
16.423,-0.4,0.6,0.1
16.51,-0.2,0.5,0.1
16.512,-0.1,0.4,0.2
16.521,-0.1,0.4,0.2
16.523,-0.0,0.3,0.1
16.63,0.0,0.2,0.0
16.633,-0.3,0.1,-0.3
16.634,-0.1,0.1,-0.4
16.729,0.2,0.1,-0.4
16.738,0.4,-0.0,-0.3
16.739,0.2,-0.1,-0.4
16.741,0.3,-0.1,-0.4
16.803,0.1,-0.1,-0.3
16.807,-0.2,-0.2,-0.4
16.809,-0.8,-0.2,-0.3
16.811,-1.3,-0.2,-0.3
16.927,-1.3,-0.3,-0.1
16.93,-0.9,-0.4,-0.3
16.946,-0.3,-0.5,-0.3
16.948,0.3,-0.4,-0.3
17.03,0.4,-0.3,-0.3
17.034,0.3,-0.3,-0.2
17.035,0.0,-0.4,-0.2
17.037,-0.4,-0.2,-0.4
17.138,-0.0,0.1,-0.3
17.141,0.2,0.2,-0.1
17.142,0.1,0.0,-0.0
17.144,-0.5,0.0,-0.2
17.146,-0.2,0.1,-0.0
17.214,-0.2,0.1,-0.0
17.216,-0.2,0.2,-0.0
17.217,-0.1,0.2,-0.1
17.219,-0.1,0.3,-0.0
17.336,0.2,0.3,-0.1
17.339,0.3,0.2,-0.1
17.341,0.2,0.2,-0.1
17.429,0.1,0.1,-0.1
17.435,0.2,-0.0,0.0
17.437,0.1,-0.1,-0.0
17.439,0.2,-0.1,0.0
17.44,0.1,-0.1,0.1
17.534,-0.0,-0.1,0.2
17.535,-0.1,-0.2,0.2
17.537,-0.0,-0.2,0.1
17.539,0.1,-0.2,0.3
17.638,-0.3,-0.3,0.3
17.639,-0.3,-0.3,0.4
17.641,-0.2,-0.3,0.3
17.642,-0.0,-0.3,0.3
17.725,0.1,-0.3,0.2
17.727,-0.0,-0.3,0.2
17.728,-0.1,-0.3,0.2
17.73,-0.2,-0.4,0.2
17.83,-0.1,-0.5,0.2
17.831,0.0,-0.4,0.1
17.833,0.3,-0.1,0.2
17.835,0.7,-0.0,0.3
17.908,0.5,-0.3,0.3
17.91,0.3,0.1,0.2
17.912,0.7,0.3,0.2
17.914,1.2,0.2,0.4
18.038,-0.3,0.3,0.1
18.039,-0.3,0.3,0.2
18.041,-0.2,0.3,0.1
18.105,-0.1,0.2,0.1
18.109,-0.3,0.2,0.1
18.11,-0.3,0.2,0.3
18.112,-0.6,0.2,0.1
18.123,-0.1,0.2,0.2
18.201,0.1,0.1,0.2
18.203,0.1,0.1,0.2
18.204,0.2,0.1,0.2
18.323,0.0,0.1,0.1
18.326,-0.3,0.0,0.0
18.328,-0.2,-0.1,-0.1
18.44,-0.1,-0.1,-0.1
18.442,-0.1,-0.1,-0.2
18.452,-0.1,-0.2,-0.2
18.454,-0.1,-0.3,-0.3
18.463,0.0,-0.2,-0.3
18.465,0.2,-0.2,-0.3
18.531,0.2,-0.1,-0.3
18.534,0.4,-0.1,-0.3
18.541,0.5,-0.1,-0.3
18.544,0.6,-0.1,-0.2
18.603,-0.1,-0.3,-0.2
18.606,-0.4,-0.3,-0.2
18.609,-0.5,-0.3,-0.2
18.719,-0.6,-0.3,-0.1
18.723,-0.5,-0.1,-0.1
18.724,-0.3,-0.1,-0.0
18.836,-0.5,-0.1,-0.0
18.841,-0.6,-0.3,-0.1
18.85,-0.6,-0.2,-0.3
18.86,-0.0,0.1,-0.1
18.862,0.5,0.2,0.3
18.928,0.3,-0.1,0.2
18.931,-1.0,-0.1,0.2
18.933,-1.0,-0.1,0.2
18.935,-0.6,-0.1,0.1
19.027,-0.2,-0.2,0.1
19.03,-0.5,-0.3,0.2
19.032,-0.9,-0.3,0.3
19.034,-1.0,-0.3,0.4
19.129,-1.0,-0.3,0.4
19.134,-0.7,-0.4,0.5
19.136,-0.5,-0.4,0.4
19.137,-0.2,-0.5,0.4
19.212,0.1,-0.6,0.3
19.226,0.2,-0.8,0.3
19.227,0.3,-0.8,0.2
19.229,0.4,-0.9,0.2
19.295,0.5,-0.9,0.2
19.299,0.4,-0.9,0.2
19.303,0.5,-0.9,0.1
19.405,0.6,-0.9,0.2
19.407,0.5,-0.8,0.2
19.41,0.3,-0.8,0.2
19.411,0.3,-0.8,0.1
19.503,0.3,-0.7,0.1
19.509,0.4,-0.4,0.2
19.513,0.4,0.1,0.5
19.514,0.3,0.2,0.5
19.622,0.7,0.2,0.5
19.623,0.6,0.3,0.3
19.642,1.2,0.8,0.5
19.643,0.5,0.7,0.6
19.701,-0.1,0.7,0.6
19.702,-0.3,0.7,0.6
19.706,-0.1,0.7,0.5
19.707,0.4,0.6,0.4
19.801,0.5,0.3,0.4
19.802,0.2,0.2,0.5
19.809,0.2,0.1,0.6
19.901,0.0,0.2,0.4
19.903,0.1,0.3,0.3
19.905,-0.7,0.4,0.2
19.909,-1.7,1.0,-0.1
20.007,-0.4,1.1,0.3
20.008,0.4,1.2,0.8
20.02,0.2,1.3,1.1
20.025,-0.7,1.3,1.9
20.134,-0.5,1.4,1.5
20.136,-0.5,1.3,1.1
20.138,-0.3,1.3,1.1
20.141,-0.1,1.3,1.3
20.228,-0.6,1.2,1.4
20.232,-1.0,1.0,1.2
20.234,-0.9,0.8,1.1
20.241,-1.1,0.4,0.8
20.243,-1.3,0.2,0.6
20.313,-1.2,0.1,0.6
20.315,-1.3,0.1,0.6
20.318,-0.9,0.3,0.8
20.325,-0.9,0.4,1.0
20.342,-1.1,0.6,0.7
20.427,-1.3,0.5,0.4
20.431,-1.1,0.3,0.5
20.529,-1.1,0.5,0.6
20.531,-0.9,0.6,0.8
20.532,-0.7,0.5,0.9
20.539,-1.2,0.5,0.8
20.54,-1.3,0.5,0.8
20.622,-1.0,0.4,0.9
20.624,-0.7,0.3,0.9
20.635,-0.7,0.2,0.9
20.637,-0.8,0.3,0.9
20.733,-0.6,0.4,0.9
20.735,-0.4,0.4,0.9
20.738,-0.5,0.6,0.7
20.763,-0.8,0.5,0.3
20.822,-1.4,0.4,0.3
20.824,-1.4,0.3,0.0
20.827,-0.5,-0.3,0.1
20.829,-0.7,-0.3,0.1
20.897,-0.8,-0.2,0.2
20.899,-0.5,-0.2,0.2
20.902,0.2,-0.2,0.3
20.904,0.3,-0.2,0.3
20.994,0.2,-0.2,0.4
20.996,0.2,-0.1,0.4
21.004,0.6,-0.1,0.4
21.137,0.4,0.0,0.5
21.139,-0.1,0.1,0.5
21.14,-0.3,0.2,0.4
21.157,-0.6,0.1,0.5
21.235,-0.5,0.2,0.5
21.237,-0.3,0.2,0.4
21.238,-0.3,0.2,0.4
21.245,-0.4,0.2,0.4
21.247,-0.3,0.2,0.4
21.332,-0.3,0.2,0.4
21.333,-0.3,0.1,0.4
21.336,-0.0,0.1,0.2
21.338,-0.2,0.0,0.1
21.423,-0.2,-0.1,0.1
21.424,0.0,-0.1,0.0
21.427,0.6,-0.2,-0.0
21.429,0.6,-0.1,0.0
21.513,0.6,-0.1,0.0
21.514,0.2,-0.1,0.1
21.532,-0.1,-0.1,0.1
21.534,-0.2,-0.1,-0.0
21.644,-0.4,-0.1,-0.1
21.651,-0.9,-0.1,-0.3
21.736,-0.6,-0.1,-0.5
21.738,-0.2,-0.2,-0.5
21.743,0.1,-0.4,-0.5
21.745,0.6,-0.4,-0.5
21.75,0.8,-0.5,-0.6
21.753,0.5,-0.5,-0.5
21.819,0.2,-0.6,-0.5
21.825,-0.0,-0.6,-0.5
21.828,-0.2,-0.6,-0.6
21.933,-0.3,-0.4,-0.7
21.935,-0.2,-0.2,-0.6
21.945,0.0,0.0,-0.4
21.948,-0.4,-0.5,-0.3
22.022,-0.4,0.0,-0.2
22.024,0.0,0.1,-0.3
22.025,0.0,-0.0,-0.2
22.033,-0.2,0.2,-0.2
22.134,-0.1,0.3,-0.2
22.137,-0.2,0.4,-0.1
22.143,-0.3,0.4,-0.1
22.147,-0.2,0.5,-0.0
22.199,-0.2,0.5,0.0
22.201,-0.3,0.5,0.0
22.207,-0.1,0.4,0.1
22.21,-0.1,0.4,0.2
22.336,-0.2,0.4,0.2
22.346,-0.1,0.3,0.2
22.36,0.1,0.2,0.3
22.433,-0.2,0.0,0.2
22.434,-0.1,0.0,0.1
22.436,0.3,-0.0,0.2
22.438,0.3,-0.1,0.2
22.441,0.0,-0.1,0.2
22.511,0.2,-0.1,0.2
22.512,0.3,-0.2,0.3
22.514,0.2,-0.3,0.2
22.603,0.2,-0.4,0.2
22.612,0.2,-0.4,0.2
22.615,0.2,-0.5,0.3
22.617,0.1,-0.5,0.2
22.728,0.8,-0.2,0.4
22.742,0.9,0.0,0.5
22.743,0.8,-0.1,0.6
22.75,0.4,-0.5,0.6
22.805,0.7,-0.2,0.2
22.807,1.0,0.1,0.1
22.808,1.0,0.4,0.2
22.81,0.7,0.6,0.3
22.906,-0.4,0.6,0.4
22.908,-0.6,0.6,0.3
22.909,-0.5,0.6,0.4
22.911,-0.4,0.5,0.4
23.076,-0.3,0.4,0.2
23.077,-0.3,0.4,0.1
23.082,-0.4,0.4,0.1
23.083,-0.4,0.4,0.2
23.168,-0.3,0.2,0.1
23.17,-0.3,0.1,-0.0
23.172,-0.3,0.0,-0.1
23.174,-0.5,-0.0,-0.2
23.226,-0.6,-0.1,-0.4
23.228,-0.4,-0.2,-0.3
23.23,-0.4,-0.2,-0.3
23.231,-0.5,-0.2,-0.3
23.297,-0.4,-0.3,-0.4
23.299,-0.2,-0.3,-0.4
23.303,-0.1,-0.4,-0.4
23.305,-0.1,-0.5,-0.5
23.438,-0.5,-0.4,-0.5
23.44,-0.4,-0.2,-0.5
23.442,-0.2,0.1,-0.4
23.443,-0.1,0.1,-0.3
23.532,-1.0,-0.3,-0.1
23.534,-1.2,-0.2,-0.2
23.539,-1.0,-0.1,-0.2
23.54,-0.8,0.3,-0.2
23.624,-0.9,0.4,0.1
23.626,-1.3,0.3,0.1
23.627,-1.6,0.3,0.1
23.629,-1.3,0.3,0.1
23.721,-0.7,0.5,0.0
23.723,-0.8,0.5,0.1
23.725,-1.2,0.5,0.1
23.726,-1.5,0.5,0.2
23.849,-1.3,0.2,0.3
23.851,-1.2,-0.0,0.3
23.853,-1.2,-0.1,0.3
23.864,-0.9,-0.2,0.2
23.918,-0.7,-0.3,0.3
23.92,-0.8,-0.4,0.4
23.922,-0.8,-0.4,0.5
23.923,-0.8,-0.5,0.4
23.998,-0.6,-0.6,-0.0
24.0,0.0,-0.7,0.6
24.001,0.4,-0.6,0.7
24.111,1.3,-1.1,1.2
24.114,-0.1,-0.9,1.1
24.116,-0.3,-0.8,1.4
24.124,-0.1,-0.6,1.4
24.211,0.0,-0.5,1.3
24.219,0.3,-0.4,1.0
24.221,0.7,-0.4,0.9
24.235,0.6,-0.3,0.9
24.326,0.5,0.0,0.9
24.331,0.1,0.4,0.9
24.332,-0.3,0.4,0.9
24.334,-0.5,0.4,0.8
24.405,-0.7,0.5,0.7
24.412,-0.8,0.3,0.7
24.413,-0.8,0.2,0.7
24.415,-0.6,0.2,0.6
24.417,-0.3,0.2,0.6
24.525,-0.4,0.1,0.7
24.526,-0.7,0.0,0.6
24.528,-0.7,-0.1,0.6
24.633,-0.3,-0.2,0.7
24.637,-0.1,-0.2,0.5
24.647,-0.1,-0.3,0.5
24.657,-0.2,-0.3,0.5
24.659,-0.4,-0.3,0.4
24.727,-0.3,-0.3,0.4
24.729,-0.3,-0.3,0.4
24.731,-0.4,-0.4,0.4
24.732,-0.5,-0.4,0.4
24.827,-0.6,-0.4,0.3
24.83,-0.5,-0.4,0.3
24.832,-0.2,-0.5,0.3
24.835,-0.1,-0.7,0.3
24.939,-0.1,-0.9,0.2
24.942,-0.2,-0.9,0.4
24.944,0.1,-0.8,0.4
24.946,0.9,-0.7,0.5
25.006,1.3,-0.2,0.7
25.041,1.5,-0.4,0.6
25.043,1.3,-0.4,0.4
25.045,1.0,-0.3,0.3
25.115,0.2,0.1,0.6
25.123,-0.0,0.2,0.6
25.128,-0.2,0.5,0.5
25.201,-0.4,0.6,0.4
25.205,-1.1,0.7,0.4
25.207,-1.4,0.7,0.5
25.209,-1.7,0.8,0.4
25.304,-1.6,0.7,0.4
25.308,-0.9,0.5,0.5
25.309,-0.6,0.3,0.4
25.311,-0.3,0.2,0.3
25.432,-0.1,0.1,0.3
25.447,0.0,-0.1,0.4
25.449,0.1,-0.1,0.4
25.45,0.3,-0.2,0.5
25.505,0.3,-0.2,0.6
25.511,-0.3,-0.1,0.5
25.513,-0.3,-0.1,0.4
25.514,-0.2,0.0,0.4
25.596,-0.3,0.1,0.5
25.607,-0.2,0.3,0.6
25.608,-0.2,0.3,0.6
25.61,-0.1,0.3,0.7
25.72,-0.1,0.3,0.7
25.725,-0.3,0.4,0.6
25.738,-0.2,0.4,0.7
25.806,-0.2,0.4,0.7
25.817,-0.1,0.4,0.7
25.82,-0.2,0.3,0.6
25.823,-0.2,0.2,0.6
25.925,-0.3,0.3,0.6
25.927,-0.5,0.3,0.6
25.93,-0.7,0.4,0.5
25.932,-0.6,0.4,0.5
26.035,-0.5,0.4,0.5
26.037,-0.3,0.2,0.5
26.045,0.0,0.3,0.3
26.046,0.1,0.2,0.3
26.048,0.5,0.2,0.2
26.05,0.4,0.2,0.1
26.139,-0.2,0.2,0.1
26.146,-0.0,0.1,0.2
26.156,0.2,0.2,0.1
26.158,0.2,0.2,0.1
26.228,0.0,0.0,-0.0
26.23,-0.1,-0.0,-0.0
26.232,-0.0,-0.1,-0.0
26.303,0.1,-0.1,-0.0
26.307,0.0,-0.2,-0.1
26.31,-0.2,-0.2,-0.1
26.315,-0.2,-0.2,-0.1
26.396,-0.1,-0.2,-0.2
26.403,-0.0,-0.2,-0.1
26.404,-0.1,-0.2,-0.2
26.505,0.0,-0.2,-0.1
26.508,-0.0,-0.2,-0.1
26.52,-0.7,-0.1,-0.3
26.532,-0.5,-0.0,-0.4
26.596,-0.2,-0.1,-0.3
26.597,-0.1,-0.1,-0.3
26.601,-0.1,-0.2,-0.4
26.607,-0.1,-0.1,-0.4
26.721,0.0,0.1,-0.4
26.722,0.2,0.4,-0.3
26.726,0.3,0.1,0.0
26.727,0.1,0.2,-0.1
26.831,0.3,0.5,-0.2
26.832,0.5,0.5,-0.2
26.836,0.1,0.6,0.1
26.85,-0.2,0.7,0.3
26.851,-0.2,0.7,0.2
26.938,0.1,0.7,0.3
26.954,-0.2,0.5,0.2
26.956,-0.5,0.6,0.2
26.958,-0.5,0.6,0.2
27.03,-0.3,0.5,0.2
27.033,-0.3,0.4,0.3
27.035,-0.3,0.3,0.3
27.036,-0.3,0.2,0.3
27.134,-0.3,0.1,0.3
27.138,-0.5,0.0,0.3
27.139,-0.3,-0.1,0.3
27.228,-0.3,-0.3,0.4
27.229,-0.5,-0.4,0.3
27.233,-0.4,-0.4,0.3
27.234,-0.4,-0.5,0.2
27.236,-0.2,-0.6,0.4
27.313,-0.1,-0.8,0.3
27.332,-0.1,-0.9,0.1
27.334,-0.2,-0.8,0.0
27.335,-0.2,-0.8,0.0
27.392,-0.1,-0.5,0.1
27.401,1.2,-0.6,0.4
27.501,1.2,-0.7,0.4
27.502,0.6,-0.3,0.2
27.505,1.1,-0.3,0.4
27.51,0.4,0.1,0.0
27.598,0.1,0.3,0.1
27.6,0.4,0.4,0.3
27.601,0.0,0.5,0.4
27.605,-0.6,0.5,0.3
27.729,-0.4,0.4,0.2
27.731,0.0,0.3,0.3
27.742,-0.1,0.3,0.2
27.745,-0.1,0.2,0.2
27.8,-0.2,0.2,0.2
27.801,-0.4,0.1,0.1
27.803,-0.1,0.1,0.1
27.806,0.1,-0.1,-0.1
27.899,0.0,-0.2,-0.1
27.901,-0.1,-0.3,-0.3
27.906,0.2,-0.4,-0.2
27.911,-0.0,-0.5,-0.3
28.035,-0.1,-0.6,-0.2
28.038,-0.4,-0.6,-0.2
28.047,-0.2,-0.6,-0.1
28.05,-0.3,-0.9,0.1
28.129,-0.3,-1.2,0.4
28.16,-0.5,-1.5,0.5
28.162,-0.7,-1.6,0.5
28.166,-0.3,-1.5,0.5
28.234,-0.1,-1.3,0.4
28.236,-0.2,-0.9,0.3
28.237,-0.5,-0.6,0.3
28.24,-0.4,-0.3,0.3
28.242,-0.1,-0.1,0.2
28.325,0.1,-0.0,0.2
28.331,0.1,0.2,0.1
28.334,-0.2,0.3,0.2
28.336,-0.4,0.3,0.3
28.438,-0.2,0.3,0.4
28.439,-0.1,0.2,0.4
28.448,0.0,0.1,0.4
28.462,0.3,0.0,0.4
28.522,0.1,0.1,0.4
28.523,-0.3,0.2,0.3
28.527,0.3,0.3,0.5
28.528,0.4,0.3,0.5
28.624,0.3,0.2,0.6
28.629,0.1,0.1,0.6
28.632,0.0,0.0,0.7
28.634,0.0,0.0,0.7
28.724,0.3,-0.1,0.8
28.726,0.1,-0.1,0.8
28.729,-0.3,-0.2,1.0
28.731,-0.3,-0.3,1.1
28.84,-0.3,-0.3,1.1
28.847,-0.2,-0.4,1.2
28.859,-0.2,-0.5,1.4
28.86,-0.2,-0.6,1.5
28.928,-0.2,-0.6,1.5
28.93,-0.2,-0.8,1.5
28.933,0.3,-1.0,1.4
28.935,0.4,-1.1,1.3
29.025,0.3,-1.1,1.1
29.027,0.7,-1.0,1.1
29.03,1.0,-0.3,1.3
29.032,0.4,-0.1,1.2
29.1,-0.3,0.1,1.0
29.102,-0.2,0.4,0.8
29.105,0.8,1.1,0.5
29.107,0.8,1.3,0.5
29.21,0.1,1.2,0.4
29.211,-0.5,1.1,0.3
29.303,-0.6,0.9,0.4
29.304,-0.3,0.9,0.5
29.306,0.2,0.8,0.6
29.308,0.1,0.4,0.7
29.425,-0.4,0.3,0.6
29.426,-0.2,0.3,0.6
29.428,0.3,0.3,0.5
29.43,0.1,0.2,0.5
29.53,-0.2,0.2,0.3
29.532,-0.1,0.2,0.3
29.534,-0.3,0.1,0.2
29.535,-0.3,0.1,0.1
29.538,0.1,0.1,0.1
29.636,0.1,0.1,0.2
29.642,-0.0,-0.0,0.2
29.652,-0.1,-0.0,0.2
29.655,-0.2,-0.1,0.2
29.731,-0.3,-0.1,0.3
29.733,-0.2,-0.2,0.3
29.734,-0.3,-0.2,0.3
29.737,-0.2,-0.3,0.4
29.82,-0.3,-0.4,0.4
29.827,-0.3,-0.4,0.4
29.829,-0.2,-0.4,0.5
29.832,-0.4,-0.4,0.5
29.929,-0.7,-0.2,0.5
29.931,-0.8,-0.3,0.4
29.932,-0.5,-0.4,0.4
29.974,-0.7,-0.5,0.2
30.02,-0.8,-0.3,0.0
30.033,-0.9,-0.3,-0.3
30.035,-0.9,-0.2,-0.6
30.04,-1.2,0.2,-1.0
30.137,-1.5,0.5,-1.2
30.141,-1.9,0.8,-1.4
30.142,-2.7,1.3,-1.6
30.147,-2.4,2.1,-1.5
30.197,-1.5,2.3,-1.1
30.199,-1.3,2.5,-0.9
30.201,-1.3,2.6,-0.7
30.206,-2.2,3.0,-0.6
30.292,-1.8,3.2,-0.2
30.294,-1.4,3.1,0.2
30.299,-1.1,2.8,0.3
30.432,-2.0,2.6,0.4
30.444,-2.0,2.7,0.8
30.446,-1.8,2.7,1.1
30.448,-1.5,2.4,1.2
30.524,-1.1,2.1,1.4
30.526,-1.1,2.1,1.5
30.528,-1.2,2.0,1.6
30.53,-1.2,1.9,1.7
30.594,-0.6,1.5,1.7
30.596,-0.4,1.3,1.6
30.598,-0.3,1.0,1.5
30.599,-0.4,0.9,1.4
30.731,-0.4,0.6,1.2
30.733,-0.4,0.4,1.0
30.742,-0.6,0.2,0.7
30.744,-0.8,0.1,0.4
30.83,-0.9,0.0,-0.1
30.832,-0.8,-0.0,-0.2
30.843,-0.6,-0.1,-0.2
30.844,-0.5,-0.2,-0.2
30.9,-0.0,-0.3,-0.1
30.901,0.0,-0.3,-0.0
30.906,-0.0,-0.2,-0.0
30.908,-0.2,-0.2,-0.0
31.001,-0.3,-0.2,-0.1
31.003,-0.2,-0.2,-0.2
31.004,-0.2,-0.3,-0.2
31.006,-0.1,-0.3,-0.3
31.138,-0.2,-0.3,-0.4
31.14,-0.3,-0.3,-0.5
31.142,-0.5,-0.3,-0.5
31.143,-0.5,-0.3,-0.6
31.229,-0.1,-0.2,-0.7
31.23,0.1,-0.2,-0.7
31.232,0.2,-0.1,-0.7
31.237,0.4,-0.1,-0.6
31.324,0.6,0.0,-0.4
31.326,0.6,0.0,-0.2
31.328,0.5,0.1,-0.1
31.329,0.4,0.1,0.0
31.42,0.1,0.1,0.1
31.421,0.1,0.1,0.1
31.423,0.0,0.1,0.1
31.424,0.0,0.1,0.1
31.528,0.1,0.1,0.1
31.53,0.1,0.1,0.1
31.531,0.1,0.1,0.2
31.548,0.2,0.1,0.2
31.623,0.1,0.0,0.2
31.625,0.0,0.0,0.1
31.626,-0.0,0.0,0.1
31.637,-0.0,0.0,0.1
31.72,0.0,0.0,0.1
31.722,0.1,0.0,0.1
31.723,0.1,0.0,0.1
31.725,0.1,0.0,0.0
31.82,0.1,0.0,0.0
31.821,0.1,0.0,0.0
31.823,0.1,0.0,0.0
31.825,0.1,0.1,0.0
31.935,0.0,0.1,0.0
31.937,0.0,0.1,0.0
31.949,-0.0,0.1,0.0
31.951,-0.0,0.0,0.0
32.024,-0.0,0.0,-0.0
32.029,-0.0,0.0,-0.0
32.031,-0.0,0.0,-0.1
32.033,-0.0,0.0,-0.1
32.134,-0.0,-0.0,-0.0
32.136,-0.0,-0.0,-0.0
32.14,-0.0,-0.0,-0.0
32.142,-0.0,-0.0,0.0
32.221,-0.0,-0.0,0.0
32.222,0.0,-0.0,-0.0
32.224,0.0,-0.0,-0.1
32.23,0.1,-0.1,-0.1
32.359,0.3,-0.2,-0.2
32.371,0.4,-0.3,-0.3
32.373,0.3,-0.4,-0.4
32.382,0.2,-0.6,-0.5
32.456,-0.0,-0.8,-0.8
32.457,0.1,-0.9,-1.0
32.459,0.6,-1.0,-1.0
32.46,0.9,-1.2,-1.1
32.464,1.1,-1.6,-1.2
32.521,1.4,-1.7,-1.2
32.523,2.1,-1.8,-1.1
32.524,2.3,-2.1,-1.2
32.63,2.0,-2.3,-1.2
32.632,1.9,-2.4,-1.2
32.635,2.4,-2.4,-1.1
32.637,2.5,-2.5,-1.0
32.742,2.6,-2.3,-0.7
32.75,2.5,-2.4,-0.6
32.751,2.2,-2.3,-0.5
32.753,1.8,-2.1,-0.5
32.829,1.3,-1.6,-0.4
32.83,1.3,-1.4,-0.4
32.832,1.1,-1.4,-0.3
32.84,1.0,-1.2,-0.3
32.924,0.5,-0.8,-0.3
32.925,0.4,-0.6,-0.3
32.933,0.4,-0.5,-0.3
32.934,0.4,-0.6,-0.3
33.082,0.1,-0.3,-0.2
33.083,0.1,-0.3,-0.1
33.085,0.1,-0.3,0.0
33.086,0.3,-0.4,0.1
33.164,0.3,-0.5,-0.0
33.166,0.4,-0.5,-0.0
33.167,0.4,-0.6,-0.1
33.169,0.4,-0.6,-0.1
33.224,0.3,-0.7,-0.2
33.228,0.3,-0.6,-0.2
33.231,0.3,-0.5,-0.3
33.233,0.3,-0.5,-0.3
33.327,0.3,-0.4,-0.4
33.329,0.3,-0.4,-0.4
33.33,0.2,-0.2,-0.4
33.333,0.2,-0.1,-0.3
33.44,0.2,0.0,-0.2
33.442,0.2,0.1,-0.1
33.445,0.2,0.1,-0.1
33.457,0.1,0.1,-0.1
33.522,0.1,-0.0,-0.1
33.527,0.1,-0.0,-0.1
33.528,0.0,-0.0,-0.1
33.53,-0.1,-0.0,-0.1
33.621,-0.0,-0.0,0.0
33.623,-0.0,-0.1,0.0
33.629,-0.0,-0.0,0.0
33.631,-0.0,-0.0,0.0
33.726,0.1,-0.0,-0.0
33.728,0.1,0.0,-0.0
33.729,0.1,-0.0,-0.1
33.731,0.1,0.0,-0.1
33.845,0.1,0.0,-0.1
33.847,0.1,0.0,-0.0
33.863,-0.0,0.0,-0.0
33.865,-0.0,0.1,0.0
