gyro_time_list,gyro_x_list,gyro_y_list,gyro_z_list
0.0,0.3,0.1,0.1
0.002,-0.1,0.1,0.2
0.003,-0.5,-0.0,0.4
0.006,0.0,0.2,0.5
0.101,0.2,0.1,0.2
0.103,0.0,0.1,0.0
0.105,-0.3,0.1,-0.0
0.11,-0.2,0.0,-0.0
0.208,-0.1,0.3,-0.0
0.209,-0.2,0.3,0.0
0.211,-0.2,0.3,0.1
0.213,-0.1,0.2,0.1
0.318,-0.1,0.2,0.1
0.319,-0.3,0.3,0.1
0.321,-0.4,0.4,0.1
0.323,-0.7,0.7,0.1
0.407,-1.5,0.3,0.2
0.409,-2.4,0.0,-1.7
0.411,-3.3,0.1,1.1
0.412,-4.2,1.3,1.2
0.501,-6.7,1.3,1.8
0.503,-7.7,1.5,2.1
0.505,-8.2,1.7,2.6
0.506,-8.0,2.0,3.1
0.603,-4.4,2.1,4.3
0.605,-4.8,2.1,4.3
0.606,-5.6,2.4,4.3
0.608,-5.1,2.4,4.5
0.706,-4.4,1.3,4.5
0.715,-4.2,0.9,4.5
0.717,-3.1,0.5,4.5
0.727,-2.5,0.1,4.2
0.797,-3.7,-0.5,2.9
0.799,-4.3,-0.5,2.2
0.804,-5.0,-0.5,1.5
0.806,-5.7,-0.6,0.9
0.898,-5.2,-0.4,0.2
0.899,-4.4,-0.2,0.2
0.906,-3.4,-0.0,0.1
0.907,-2.2,0.1,0.1
1.003,0.3,0.4,0.2
1.005,1.1,0.5,0.3
1.006,1.0,0.7,0.1
1.008,0.3,0.7,0.0
1.111,0.8,-0.1,0.1
1.113,0.8,-0.2,-0.0
1.126,1.4,-0.2,-0.2
1.127,1.8,-0.4,-0.1
1.201,1.9,-0.1,-0.6
1.203,1.7,0.3,-0.9
1.205,1.1,-0.1,-1.6
1.209,1.3,0.3,-1.4
1.298,1.1,0.2,-1.4
1.3,0.4,0.2,-1.4
1.301,-0.1,0.3,-1.4
1.303,-0.4,0.3,-1.2
1.402,-0.3,0.3,-0.8
1.404,-0.1,0.3,-0.6
1.406,0.2,0.3,-0.4
1.407,0.4,0.3,-0.3
1.511,0.7,0.4,-0.1
1.52,0.8,0.4,-0.0
1.522,1.0,0.5,0.1
1.523,1.1,0.5,0.2
1.595,0.5,0.5,0.4
1.597,-0.4,0.3,0.4
1.598,-0.8,0.1,0.5
1.699,-0.7,0.1,0.6
1.702,-0.7,-0.2,0.7
1.704,-0.7,-0.3,0.6
1.706,-0.2,-0.4,0.5
1.796,0.1,-0.5,0.6
1.803,-0.0,-0.4,0.6
1.805,-0.0,-0.4,0.4
1.806,-0.1,-0.3,0.4
1.908,-0.2,-0.3,0.3
1.927,-0.4,-0.1,0.2
1.929,-0.5,-0.1,0.1
1.931,-0.7,-0.1,0.1
2.003,-0.7,-0.1,0.0
2.006,-0.1,-0.1,-0.0
2.007,0.0,-0.0,-0.1
2.009,-0.1,0.1,-0.1
2.1,-0.3,0.0,-0.1
2.103,-1.0,-0.2,-0.4
2.105,-0.9,-0.3,-0.5
2.107,-0.9,-0.3,-0.6
2.199,-1.2,-0.1,-0.7
2.203,-1.9,-0.1,-0.7
2.205,-2.3,0.1,-0.7
2.21,-2.5,0.1,-0.5
2.31,-2.2,-0.1,-0.4
2.323,-1.4,-0.1,-0.6
2.333,-0.9,-0.2,-0.5
2.335,0.2,-0.8,0.0
2.398,0.1,-0.2,-0.3
2.401,-0.9,-0.2,-0.6
2.406,1.3,-1.6,1.1
2.408,-0.3,0.2,-0.1
2.5,-0.1,-0.7,0.9
2.503,0.2,-0.5,1.1
2.505,0.3,-0.3,1.1
2.507,0.5,-0.4,1.2
2.609,0.6,-0.3,1.3
2.612,0.3,-0.0,1.4
2.614,-0.1,-0.1,1.3
2.615,-0.6,-0.1,1.3
2.699,-0.8,-0.3,1.2
2.703,-0.6,0.2,1.0
2.704,0.6,1.0,0.6
2.706,2.4,1.0,0.2
2.799,3.3,0.0,0.4
2.805,2.6,-0.8,0.3
2.807,1.7,-0.7,0.2
2.809,1.4,-0.2,-0.6
2.903,1.7,0.1,-0.9
2.911,-0.4,0.4,-1.7
2.913,-2.5,0.5,-1.3
2.914,-0.8,0.1,-1.7
2.991,-0.3,0.7,-1.4
2.994,0.2,0.8,-1.3
2.995,0.4,0.8,-1.2
3.005,1.2,0.9,-1.1
3.09,2.0,0.9,-1.1
3.094,2.6,0.8,-1.3
3.178,2.5,0.7,-1.4
3.18,2.2,0.6,-1.5
3.182,1.7,0.5,-1.5
3.185,0.7,0.4,-1.1
3.187,0.3,0.4,-0.8
3.277,0.1,0.4,-0.4
3.279,0.4,0.3,-0.0
3.282,1.3,0.3,0.5
3.379,1.6,0.4,0.7
3.38,2.0,0.5,0.8
3.382,2.3,0.7,0.8
3.385,2.1,0.8,0.7
3.476,1.7,0.7,0.6
3.477,1.4,0.7,0.6
3.479,1.0,0.6,0.6
3.482,0.3,0.3,0.7
3.577,-0.1,0.2,0.8
3.579,-0.4,0.2,0.8
3.58,-0.7,0.1,0.8
3.583,-1.5,-0.1,0.8
3.674,-1.9,-0.4,0.7
3.676,-2.2,-0.8,0.5
3.681,-2.1,-0.9,0.3
3.684,-1.7,-0.9,-0.3
3.808,-1.2,-0.6,-0.6
3.81,-1.1,-0.6,-0.9
3.811,-1.4,-1.0,-1.3
3.829,-2.2,-1.3,-1.8
3.903,-2.5,-0.9,-1.9
3.912,-2.5,-0.8,-1.9
3.914,-2.1,-0.9,-1.7
3.917,-1.6,-0.9,-1.0
3.918,-1.7,-0.8,-0.6
3.995,-1.9,-0.8,-0.1
3.997,-1.7,-0.9,0.4
4.0,-0.7,-0.8,1.4
4.002,-0.3,-0.7,1.8
4.099,0.1,-0.5,2.1
4.1,0.5,-0.3,2.3
4.104,-1.3,-0.1,2.7
4.109,-4.7,-0.2,3.7
4.21,-2.7,-0.5,1.3
4.211,-1.3,-0.9,2.3
4.223,-0.3,-0.2,1.8
4.224,1.2,-0.4,1.5
4.299,2.0,-0.4,1.4
4.3,2.3,-0.3,1.3
4.304,2.1,0.3,0.7
4.305,3.1,0.5,0.1
4.4,3.5,0.6,0.1
4.402,3.3,0.6,-0.4
4.405,1.1,0.3,-1.1
4.407,0.6,0.1,-1.6
4.5,1.1,-0.1,-1.4
4.501,1.3,-0.4,-1.1
4.508,-2.8,-0.5,-1.3
4.51,-3.3,-0.7,-1.6
4.603,-3.7,-0.4,-1.4
4.613,-3.9,-0.1,-1.7
4.623,-1.6,1.0,-1.8
4.625,-0.0,1.3,-1.6
4.699,1.2,1.2,-1.4
4.7,2.1,1.0,-1.3
4.707,2.5,0.8,-1.1
4.708,2.6,0.8,-1.1
4.795,2.5,0.7,-1.1
4.797,2.2,0.6,-1.1
4.8,1.3,0.8,-0.9
4.806,0.9,0.8,-0.6
4.898,0.6,0.8,-0.3
4.899,0.4,0.8,0.1
4.903,0.3,0.5,1.0
5.004,0.2,0.3,1.4
5.018,0.1,0.3,1.7
5.02,-0.1,0.3,1.9
5.023,-0.2,0.1,2.0
5.102,-0.1,0.2,2.0
5.104,0.1,0.3,2.0
5.105,0.4,0.3,1.9
5.109,0.6,0.7,1.9
5.201,0.5,0.6,1.8
5.203,0.3,0.4,1.8
5.205,-0.0,0.2,1.8
5.208,-0.2,0.2,1.5
5.304,0.1,0.3,1.3
5.305,0.6,-0.2,1.0
5.313,1.2,-0.6,0.8
5.317,2.0,-0.1,-0.2
5.395,1.8,0.0,-0.7
5.397,1.2,-0.4,-1.2
5.402,0.3,-1.0,-1.8
5.405,-1.0,-1.3,-2.3
5.5,-1.3,-1.2,-2.5
5.502,-1.5,-1.0,-2.5
5.504,-1.5,-1.0,-2.5
5.507,-1.0,-0.8,-2.1
5.602,-0.6,-0.6,-1.8
5.605,-0.3,-0.4,-1.6
5.607,0.0,-0.2,-1.3
5.61,0.4,0.0,-0.8
5.703,0.5,0.1,-0.5
5.705,0.5,0.2,-0.2
5.707,0.6,0.2,0.1
5.718,0.5,0.2,0.5
5.797,0.5,0.2,0.8
5.799,0.4,0.1,0.9
5.801,0.3,0.1,1.0
5.804,-0.6,0.1,1.1
5.894,-1.8,0.1,1.0
5.896,-2.9,-0.1,1.0
5.901,-3.6,-0.1,1.0
5.904,-3.4,0.1,1.1
5.995,-2.5,0.1,1.0
5.996,-1.1,0.2,0.9
5.998,-0.1,0.3,0.5
6.001,1.2,0.6,0.4
6.108,3.3,0.0,-0.7
6.11,3.5,0.4,-0.8
6.116,2.4,0.5,-0.5
6.128,2.1,0.2,-0.6
6.198,1.6,0.3,-0.6
6.199,1.2,0.3,-0.5
6.201,1.0,0.1,-0.4
6.21,1.3,0.1,0.1
6.271,1.5,0.1,0.3
6.273,1.7,0.1,0.4
6.274,1.8,0.2,0.3
6.282,2.2,0.6,0.2
6.365,2.2,0.7,0.2
6.366,2.2,0.8,0.3
6.368,2.1,0.8,0.3
6.509,2.0,0.8,0.2
6.511,1.9,0.8,0.2
6.513,1.7,0.8,0.0
6.523,1.5,0.8,-0.1
6.605,1.2,0.9,-0.2
6.606,1.2,1.0,-0.2
6.608,1.3,1.1,-0.2
6.609,1.4,1.2,-0.1
6.697,2.7,1.2,0.8
6.698,3.1,1.5,1.1
6.7,2.5,1.9,1.4
6.702,2.4,1.7,1.9
6.796,2.2,1.2,2.2
6.797,1.6,1.0,2.0
6.804,1.1,1.0,1.8
6.806,0.9,0.8,1.6
6.908,0.7,-0.3,1.2
6.909,0.6,-0.5,1.1
6.919,0.1,-0.6,1.0
6.92,-0.4,-0.7,0.7
6.998,-1.1,-0.3,0.5
6.999,-1.4,-0.6,0.3
7.001,-1.1,-0.9,0.0
7.006,-0.8,-0.9,-0.4
7.094,0.2,-0.6,-1.1
7.096,0.0,-0.5,-1.3
7.097,-0.8,-0.5,-1.6
7.099,-1.9,-0.4,-1.7
7.195,-4.1,-0.1,-2.1
7.2,-3.8,-0.1,-1.9
7.202,-2.7,0.1,-1.5
7.204,-1.2,0.1,-1.4
7.302,0.6,0.2,-1.1
7.314,0.8,0.3,-0.8
7.315,0.7,0.3,-0.8
7.317,0.5,-0.1,-0.5
7.394,0.8,0.1,0.0
7.395,0.8,0.0,0.3
7.397,0.7,-0.0,0.4
7.403,0.1,-0.2,0.3
7.498,-1.6,-0.8,0.9
7.499,-0.9,-0.5,1.9
7.502,0.2,0.3,2.0
7.503,0.5,0.4,1.8
7.61,0.3,0.8,1.1
7.611,1.7,1.4,1.2
7.613,3.7,1.4,0.9
7.615,4.5,0.5,0.6
7.698,3.9,-0.3,0.1
7.699,3.8,-0.5,-0.0
7.701,3.0,-0.5,-0.2
7.703,1.1,0.2,-0.8
7.794,0.4,-0.2,-0.7
7.796,-0.0,-0.0,-0.7
7.801,-0.4,-0.0,-0.7
7.805,-0.4,0.0,-0.8
7.902,0.1,0.4,-0.7
7.904,0.5,0.6,-0.7
7.906,0.9,0.6,-0.7
7.907,1.2,0.7,-0.6
8.007,1.6,0.7,-0.6
8.009,1.6,0.6,-0.6
8.01,1.5,0.6,-0.7
8.018,1.2,0.6,-0.7
8.099,0.6,0.5,-0.8
8.101,0.3,0.5,-0.8
8.102,0.1,0.5,-0.7
8.104,-0.0,0.5,-0.6
8.198,0.0,0.6,-0.2
8.2,0.2,0.6,0.1
8.202,0.5,0.6,0.4
8.204,1.2,0.9,0.7
8.301,1.8,1.1,1.4
8.306,1.7,1.0,1.6
8.309,1.5,0.9,1.7
8.311,1.1,0.8,1.9
8.408,0.3,0.1,2.0
8.415,-0.1,-0.7,1.8
8.416,-0.6,-1.2,1.5
8.426,-0.9,-1.4,1.1
8.5,-1.3,-1.4,0.0
8.502,-1.4,-1.2,-0.6
8.504,-1.7,-1.3,-1.2
8.505,-2.2,-1.5,-1.6
8.583,-3.3,-1.6,-2.1
8.585,-3.6,-1.6,-2.2
8.586,-3.7,-1.5,-2.3
8.588,-3.2,-1.3,-2.2
8.667,-1.5,-1.0,-1.7
8.669,-0.9,-0.8,-1.4
8.671,-0.5,-0.6,-1.0
8.778,-0.2,-0.4,-0.6
8.781,0.3,-0.3,-0.0
8.783,0.2,-0.2,0.3
8.792,-0.1,-0.2,0.7
8.87,-0.4,-0.2,1.1
8.874,-6.4,0.6,1.5
8.875,-7.0,-0.8,0.6
8.881,-4.1,-1.1,1.3
8.976,-0.4,-0.6,1.6
8.988,3.4,0.4,1.0
8.991,4.1,0.3,1.2
8.993,4.2,0.1,1.5
9.079,3.9,-0.2,1.7
9.084,-1.1,-0.3,1.4
9.086,-2.3,0.7,0.9
9.087,-2.3,0.5,0.6
9.189,-2.2,0.3,0.6
9.192,-0.2,-0.1,0.4
9.223,1.1,0.5,0.1
9.224,2.2,0.4,-0.0
9.289,2.9,0.1,-0.5
9.292,3.6,0.4,-0.4
9.294,3.3,0.1,-0.5
9.299,2.3,-0.3,-0.8
9.397,1.3,-0.4,-0.9
9.401,-0.5,0.1,-1.2
9.402,-0.9,0.1,-1.3
9.404,-1.0,0.3,-1.3
9.501,-0.8,0.4,-1.3
9.504,0.0,0.6,-1.2
9.512,0.5,0.6,-1.1
9.514,0.8,0.6,-1.0
9.515,1.1,0.6,-0.8
9.63,1.2,0.5,-0.5
9.631,1.0,0.5,-0.3
9.633,0.8,0.6,-0.1
9.636,0.7,0.6,0.1
9.696,0.4,0.7,0.5
9.697,0.3,0.7,0.7
9.703,0.2,0.8,0.9
9.705,0.6,0.9,1.2
9.796,3.2,1.1,1.9
9.797,3.4,1.3,2.1
9.799,2.9,1.4,2.0
9.8,2.3,1.2,1.9
9.893,0.8,0.8,1.2
9.895,0.3,0.7,0.8
9.896,-0.0,0.3,0.2
10.008,-0.2,0.1,-0.2
10.02,-0.5,-0.3,-0.8
10.021,-0.5,-0.9,-1.0
10.023,-0.5,-1.1,-1.2
10.1,-0.4,-1.0,-1.5
10.103,-0.3,-0.6,-1.9
10.105,-0.5,-0.7,-2.1
10.106,-0.5,-1.0,-2.1
10.217,-0.6,-1.1,-1.9
10.22,-0.8,-1.2,-1.5
10.222,-0.9,-1.2,-1.4
10.224,-0.7,-1.2,-1.2
10.285,-0.5,-1.1,-1.1
10.293,-0.2,-0.9,-0.8
10.295,-0.1,-0.7,-0.6
10.297,-0.2,-0.5,-0.3
10.365,-0.3,-0.4,0.1
10.368,-0.5,-0.1,1.0
10.374,-0.5,-0.1,1.4
10.505,-0.5,0.0,1.8
10.507,-0.3,0.1,2.1
10.513,0.2,0.4,2.2
10.515,0.6,0.5,2.2
10.574,0.9,0.6,2.0
10.576,1.1,0.7,1.8
10.579,-0.2,0.5,0.9
10.581,-0.4,0.2,0.3
10.582,-3.3,-1.0,-0.3
10.675,-3.4,-0.2,0.6
10.678,0.4,0.2,0.7
10.68,1.8,0.4,0.6
10.807,2.3,0.3,0.7
10.809,2.7,0.3,0.7
10.812,2.8,0.4,0.5
10.814,2.4,0.4,0.2
10.905,1.9,0.1,-0.1
10.907,1.5,-0.1,-0.4
10.91,0.8,0.2,-0.9
10.912,0.7,0.3,-1.2
10.913,0.6,0.5,-1.3
10.998,0.6,0.5,-1.3
11.001,0.9,0.3,-1.0
11.003,1.1,0.2,-0.8
11.004,1.3,0.0,-0.5
11.113,1.5,-0.1,-0.4
11.116,1.2,-0.1,-0.4
11.126,1.1,-0.1,-0.5
11.128,1.0,0.1,-0.7
11.203,1.0,0.2,-0.7
11.206,1.0,0.5,-0.7
11.208,1.0,0.6,-0.6
11.209,1.1,0.7,-0.5
11.306,1.1,0.8,-0.4
11.31,1.1,0.8,-0.2
11.312,1.0,0.8,-0.0
11.313,0.8,0.8,0.1
11.394,0.6,0.8,0.2
11.397,0.2,0.8,0.5
11.399,0.1,0.9,0.8
11.4,0.2,0.9,1.1
11.513,0.4,1.1,1.5
11.525,1.0,1.2,2.2
11.527,1.3,1.3,2.4
11.6,1.5,1.5,2.5
11.602,1.8,1.5,2.5
11.608,2.5,1.3,2.1
11.61,2.8,1.2,1.8
11.68,2.9,1.2,1.4
11.681,2.9,0.7,0.9
11.685,2.1,-0.6,-0.1
11.689,1.4,-1.0,-0.5
11.774,0.4,-1.2,-1.0
11.776,-0.5,-1.2,-1.3
11.779,-2.0,-1.5,-1.7
11.887,-2.7,-1.5,-1.8
11.889,-3.0,-1.4,-1.7
11.895,-3.0,-1.4,-1.5
11.911,-1.7,-1.1,-1.1
11.98,-0.9,-0.8,-1.1
11.982,-0.2,-0.6,-1.2
11.984,0.5,-0.5,-1.1
11.987,1.0,-0.2,-0.8
12.08,0.9,-0.2,-0.6
12.086,0.7,-0.2,-0.3
12.088,0.5,-0.2,0.0
12.091,-0.1,-0.2,0.5
12.182,-0.3,-0.1,0.7
12.184,-0.2,0.0,1.0
12.19,-0.1,0.2,1.2
12.193,0.3,0.3,1.4
12.28,0.5,0.4,1.4
12.282,0.5,0.4,1.3
12.3,0.4,0.5,1.1
12.303,0.1,0.5,0.7
12.402,-0.6,0.3,0.4
12.403,-1.8,0.3,0.3
12.405,-2.1,0.6,0.1
12.408,-1.5,0.3,0.3
12.501,-1.8,0.0,0.2
12.503,-1.6,-0.6,0.5
12.504,-1.1,-0.5,0.4
12.507,0.1,-0.4,0.0
12.509,0.8,-0.1,-0.2
12.614,1.0,-0.0,-0.5
12.616,1.0,0.0,-0.7
12.619,0.6,-0.3,-1.1
12.628,0.1,-0.3,-1.2
12.693,-0.3,-0.3,-1.3
12.695,-0.4,-0.2,-1.3
12.702,-0.2,0.0,-1.3
12.703,-0.1,0.1,-1.2
12.794,0.2,0.2,-1.0
12.796,0.4,0.2,-0.8
12.799,0.7,0.3,-0.3
12.801,0.7,0.2,-0.1
12.893,0.7,0.3,0.0
12.894,0.6,0.3,0.2
12.897,0.4,0.2,0.3
12.899,0.3,0.3,0.4
13.011,0.1,0.3,0.4
13.012,0.1,0.3,0.4
13.016,-0.0,0.3,0.4
13.025,-0.0,0.4,0.4
13.097,0.1,0.4,0.5
13.098,0.2,0.4,0.6
13.101,0.7,0.7,0.8
13.106,0.8,0.6,0.9
13.195,0.6,0.5,1.1
13.197,0.4,0.5,1.3
13.2,-0.3,-0.0,1.6
13.3,-0.5,-0.3,1.5
13.302,-0.3,-0.3,1.4
13.304,0.1,-0.5,1.1
13.307,1.0,-0.4,0.3
13.384,1.3,-0.1,-0.3
13.387,1.0,0.0,-0.8
13.389,0.4,-0.2,-1.2
13.405,-1.2,-0.9,-1.9
13.465,-2.1,-1.0,-2.2
13.466,-2.6,-1.1,-2.3
13.468,-2.7,-1.0,-2.3
13.592,-2.1,-0.6,-2.1
13.594,-1.5,-0.4,-1.8
13.596,-0.8,-0.3,-1.5
13.598,-0.3,-0.2,-1.1
13.697,0.4,-0.1,-0.3
13.699,0.5,0.0,0.1
13.703,0.3,0.1,0.5
13.705,-0.0,0.2,0.8
13.709,-1.7,-0.1,1.2
13.803,-1.0,-0.1,1.2
13.805,-0.8,-0.3,1.1
13.808,0.2,-0.6,1.1
13.824,1.7,-0.1,0.9
13.905,1.7,-0.4,0.8
13.906,2.4,-0.7,1.1
13.908,2.0,-0.5,0.7
13.911,0.6,-0.2,0.5
13.997,-0.0,-0.1,0.4
13.999,-0.6,0.1,0.4
14.003,-1.0,0.2,0.4
14.007,-1.1,0.4,0.5
14.093,-0.9,0.4,0.5
14.095,-0.6,0.6,0.4
14.096,-0.2,0.6,0.3
14.1,0.5,0.2,0.1
14.21,0.7,0.4,-0.0
14.211,0.8,0.4,-0.2
14.221,1.1,0.2,-0.2
14.226,0.5,0.6,-0.4
14.293,0.1,0.6,-0.5
14.294,-0.2,0.1,-0.4
14.302,-0.4,-0.3,-0.3
14.306,-1.3,-0.4,-0.1
14.393,-1.4,-0.2,-0.0
14.399,-1.2,-0.1,0.1
14.4,-0.8,0.1,0.2
14.404,-0.2,0.4,0.5
14.497,0.3,0.6,0.6
14.498,0.7,0.8,0.6
14.502,1.1,0.9,0.6
14.505,1.6,0.8,0.4
14.615,1.7,0.7,0.2
14.625,1.6,0.6,0.1
14.631,1.5,0.3,-0.1
14.634,0.9,-0.1,-0.3
14.702,0.2,-0.1,-0.3
14.704,-0.3,-0.1,-0.4
14.705,-0.5,-0.1,-0.3
14.712,-0.4,0.0,0.1
14.767,-0.2,0.1,0.2
14.769,0.1,0.1,0.4
14.771,0.4,0.0,0.4
14.89,0.7,-0.1,0.5
14.896,0.7,-0.3,0.6
14.898,0.7,-0.2,0.6
14.9,0.9,-0.0,0.8
15.0,1.2,0.2,1.1
15.01,1.4,0.3,1.2
15.012,1.7,0.4,1.4
15.013,2.0,0.5,1.5
15.07,2.1,0.1,1.1
15.076,1.9,-0.2,0.7
15.077,1.6,-0.4,0.2
15.079,1.3,-0.4,-0.3
15.173,0.8,-0.2,-1.0
15.175,0.9,-0.3,-1.1
15.177,1.1,-0.5,-1.2
15.178,1.3,-0.9,-1.3
15.271,0.8,-0.9,-1.4
15.273,0.5,-0.9,-1.4
15.278,0.3,-0.8,-1.4
15.28,0.3,-0.7,-1.2
15.405,0.6,-0.5,-0.8
15.407,0.7,-0.3,-0.6
15.408,0.8,-0.2,-0.5
15.41,0.8,-0.1,-0.3
15.478,0.9,0.2,-0.0
15.479,0.9,0.3,0.1
15.481,1.0,0.4,0.2
15.483,1.1,0.5,0.2
15.575,1.4,0.7,0.2
15.579,1.6,0.8,0.1
15.581,1.9,1.0,0.0
15.583,2.2,1.0,-0.0
15.679,2.4,0.9,-0.2
15.688,2.4,0.8,-0.2
15.689,2.1,0.7,-0.1
15.691,1.8,0.6,-0.1
15.794,1.0,0.6,-0.0
15.799,0.8,0.5,0.0
15.804,0.7,0.6,0.1
15.806,0.7,0.6,0.1
15.897,0.4,0.6,0.2
15.9,0.5,0.6,0.2
15.902,0.6,0.5,0.2
15.904,0.8,0.4,0.2
15.992,1.0,0.2,0.1
15.994,0.9,0.2,0.0
15.996,0.9,0.1,-0.1
15.997,0.9,0.2,-0.1
16.108,1.0,0.3,-0.1
16.11,1.2,0.3,-0.1
16.112,1.3,0.4,-0.0
16.121,1.5,0.4,0.1
16.192,1.9,0.6,0.3
16.194,2.2,0.7,0.4
16.196,2.4,0.7,0.5
16.197,2.6,0.7,0.6
16.296,2.9,0.5,0.7
16.3,2.9,0.4,0.7
16.302,2.7,0.3,0.6
16.304,2.6,0.2,0.6
16.393,2.2,0.2,0.4
16.395,2.2,0.2,0.3
16.4,2.1,0.2,0.2
16.402,2.1,0.2,0.1
16.498,2.2,0.2,-0.3
16.499,2.1,0.2,-0.4
16.509,2.0,0.2,-0.6
16.519,1.8,0.2,-0.7
16.6,1.6,0.3,-1.0
16.602,1.5,0.4,-1.0
16.603,1.4,0.4,-1.0
16.605,1.5,0.4,-1.0
16.7,1.8,0.6,-1.0
16.701,2.0,0.8,-0.9
16.703,2.1,0.9,-0.8
16.704,2.1,0.9,-0.7
16.776,1.3,0.8,-0.2
16.778,0.6,0.6,0.0
16.779,0.4,0.4,0.3
16.781,0.5,0.3,0.4
16.879,1.4,0.3,0.3
16.889,1.7,0.3,0.2
16.89,1.9,0.3,0.1
16.97,1.9,0.3,0.1
16.974,1.4,0.3,-0.0
16.976,1.1,0.4,0.0
16.977,0.9,0.4,0.1
17.097,0.8,0.4,0.1
17.1,-0.1,0.2,0.2
17.102,-0.4,0.2,0.3
17.103,-0.4,0.2,0.3
17.206,-0.1,0.2,0.4
17.209,0.8,0.5,0.4
17.21,0.8,0.4,0.3
17.212,0.9,0.1,0.1
17.214,1.1,-0.0,-0.1
17.318,1.0,-0.0,-0.6
17.32,0.8,-0.0,-0.8
17.322,0.5,-0.0,-1.0
17.323,0.2,-0.1,-1.1
17.396,-0.1,-0.0,-1.1
17.397,-0.1,-0.1,-1.0
17.399,-0.1,-0.1,-0.9
17.401,0.0,-0.0,-0.8
17.494,0.3,0.2,-0.6
17.504,0.4,0.2,-0.5
17.507,0.5,0.3,-0.3
17.509,1.1,0.2,-0.1
17.603,2.3,0.1,-0.2
17.605,1.1,-0.2,-1.1
17.612,0.5,-0.7,-1.5
17.616,0.7,-1.3,-2.2
17.693,2.1,-2.6,-2.9
17.695,2.9,-3.0,-2.8
17.703,3.6,-3.4,-2.7
17.705,4.0,-3.8,-2.2
17.793,2.7,-3.3,-1.4
17.795,2.7,-2.7,-0.7
17.799,2.3,-2.5,-0.3
17.8,1.5,-1.9,-0.1
17.893,1.2,-0.4,0.7
17.899,1.3,-0.0,1.1
17.901,1.2,0.4,1.4
17.903,0.8,1.0,1.6
18.006,0.4,1.3,1.9
18.008,-0.5,1.3,1.6
18.009,-0.9,1.5,1.3
18.02,-0.9,1.5,1.0
18.071,-0.9,0.7,0.4
18.072,-0.4,0.4,0.0
18.082,2.9,-0.3,-1.0
18.2,3.1,-0.8,0.2
18.203,3.2,-0.3,0.7
18.206,2.9,0.1,0.7
18.283,1.4,0.0,0.2
18.285,0.0,0.1,0.3
18.288,-0.2,0.3,-0.1
18.29,-0.4,0.2,-0.2
18.291,-0.3,-0.0,-0.2
18.381,-0.2,-0.2,-0.3
18.384,-0.3,-0.2,-0.2
18.386,-0.5,-0.2,-0.1
18.467,-0.3,-0.2,-0.1
18.469,-0.3,-0.2,-0.0
18.472,-0.2,-0.4,-0.1
18.474,-0.1,-0.3,-0.0
18.571,0.0,-0.4,0.0
18.573,0.1,-0.6,-0.1
18.577,0.6,-0.6,-0.4
18.578,0.1,-0.5,-0.4
18.676,0.1,-0.4,-0.3
18.678,0.0,-0.7,-0.3
18.681,0.7,-0.7,0.0
18.683,0.3,-0.8,0.1
18.774,-0.1,-0.7,0.1
18.776,0.2,-1.0,-0.1
18.779,0.3,-0.7,-0.0
18.79,0.1,-0.7,-0.1
18.866,0.2,-0.6,0.0
18.872,0.4,-0.5,0.2
18.878,0.5,-0.7,0.3
18.88,0.5,-0.8,0.4
18.97,0.3,-0.7,0.4
18.971,0.3,-0.6,0.4
18.975,-0.5,-0.7,0.5
18.976,-2.1,-0.6,0.7
19.099,-2.4,-0.1,0.5
19.101,0.0,0.0,1.1
19.104,-0.4,0.7,0.6
19.106,-0.2,0.7,0.7
19.226,-0.2,0.5,0.7
19.228,-0.2,0.3,0.7
19.254,0.1,0.2,0.6
19.255,1.0,0.3,0.8
19.257,1.0,0.1,0.2
19.318,-0.3,-0.9,-0.6
19.325,-1.1,-0.8,-1.2
19.326,-1.3,-0.6,-1.7
19.328,-0.6,-0.3,-1.8
19.399,-0.5,-0.1,-1.7
19.402,-0.0,0.1,-1.4
19.404,-0.3,0.2,-1.5
19.405,-0.3,0.1,-1.3
19.492,-0.2,-0.1,-1.2
19.502,0.1,-0.2,-1.1
19.504,0.4,-0.3,-1.0
19.505,0.4,-0.4,-0.8
19.604,0.3,-0.3,-0.6
19.621,0.6,0.5,0.2
19.623,0.8,1.0,0.6
19.625,0.8,1.4,1.0
19.695,0.7,2.0,1.2
19.698,-2.0,2.1,1.1
19.699,-0.9,0.8,0.6
19.701,0.5,1.0,0.7
19.797,1.3,1.3,0.6
19.8,4.3,-0.8,1.7
19.805,-0.2,-1.5,0.0
19.892,-2.2,-0.4,0.2
19.893,-0.8,0.2,-0.1
19.896,0.3,0.1,-0.1
19.898,-0.3,0.5,-0.2
20.007,-0.7,0.3,-0.4
20.023,-1.1,0.4,-0.4
20.027,-0.7,0.2,-0.6
20.029,0.1,0.6,-1.0
20.091,-0.1,0.3,-0.0
20.099,-0.4,0.4,0.6
20.103,-0.2,0.2,0.2
20.106,-0.2,-0.1,0.4
20.172,-0.3,-0.1,0.3
20.174,-0.3,-0.3,0.2
20.177,-0.0,-0.5,-0.1
20.179,-0.2,-0.8,-0.3
20.296,-0.3,-0.9,-0.3
20.297,0.7,-0.6,-0.1
20.305,0.9,-0.5,0.0
20.377,1.1,-0.6,0.3
20.386,1.2,-0.9,0.6
20.396,1.2,-1.0,0.6
20.4,0.6,-0.9,0.6
20.401,0.8,-1.1,0.5
20.488,0.8,-1.0,0.5
20.489,0.6,-1.1,0.6
20.5,-1.7,-1.0,1.0
20.602,-1.3,-0.5,0.6
20.605,-0.9,-0.5,0.5
20.607,-0.5,-0.5,0.4
20.611,0.3,0.0,0.7
20.612,0.1,0.3,0.6
20.706,-0.0,0.4,0.7
20.708,0.0,0.4,0.8
20.716,0.5,0.0,0.7
20.726,0.6,-0.3,0.9
20.791,0.4,-0.4,0.9
20.804,-0.6,-0.9,0.5
20.807,-0.2,-0.9,-0.7
20.809,-0.6,-0.4,-0.7
20.896,-1.3,-0.5,-1.3
20.898,-1.8,-0.6,-1.5
20.902,-0.9,0.1,-1.2
20.903,-0.6,0.1,-1.2
20.995,-0.7,0.5,-0.9
20.996,-1.2,0.7,-0.6
21.0,0.4,1.1,0.1
21.001,1.5,1.6,0.6
21.106,1.0,2.5,1.0
21.108,0.1,3.0,1.2
21.119,2.3,-0.2,0.6
21.121,-0.5,-0.0,-0.2
21.208,0.7,-2.0,-1.4
21.214,1.8,-1.3,-0.9
21.219,-1.6,-2.5,-0.4
21.22,-0.6,-1.7,-0.4
21.291,0.9,-2.3,-0.1
21.293,0.8,-1.6,-0.2
21.296,0.4,-1.2,0.1
21.297,0.2,-0.9,0.2
21.39,0.1,-0.7,0.0
21.392,-0.1,-0.4,0.3
21.395,-0.4,0.3,0.3
21.615,0.2,-0.1,0.4
21.617,0.1,0.7,-0.8
21.618,1.9,0.3,-0.3
21.641,0.9,0.1,0.1
21.694,0.7,-0.0,0.4
21.697,-0.6,-0.6,2.9
21.699,-2.0,-1.2,1.0
21.706,-0.1,-1.2,1.2
21.766,-0.1,-1.0,1.0
21.767,0.6,-1.2,1.1
21.769,-0.8,-0.9,0.7
21.772,0.4,-0.9,0.7
21.84,-0.1,-1.0,1.0
21.841,0.6,-1.2,1.1
21.845,-0.8,-0.9,0.7
21.851,0.4,-0.9,0.7
21.934,-0.8,-0.6,0.4
21.936,0.0,-0.8,0.7
21.946,-0.7,-0.5,0.6
22.037,-0.3,-0.2,0.3
22.038,-0.1,-0.1,0.3
22.04,-0.1,-0.1,0.3
22.041,-0.2,-0.1,0.3
22.045,-0.2,-0.2,0.5
22.129,-0.2,-0.2,0.8
22.13,-0.2,-0.1,0.8
22.135,0.1,-0.1,0.9
22.138,-0.1,0.0,1.1
22.228,-0.1,0.1,1.2
22.234,0.4,-0.4,1.5
22.237,-0.5,-0.3,1.1
22.24,-0.1,-0.0,0.1
22.304,3.9,0.8,0.7
22.317,3.7,0.5,0.6
22.318,2.9,0.5,-0.0
22.332,-0.2,-0.0,-0.7
22.401,-1.7,-0.3,-0.5
22.402,-1.9,-0.4,-0.1
22.404,-1.6,-0.4,0.5
22.407,-1.0,-0.2,0.4
22.465,-0.5,-0.5,0.5
22.467,-0.8,-0.4,0.9
22.469,-1.5,-0.1,1.2
22.472,-0.8,0.7,1.8
22.587,-1.3,0.9,1.8
22.589,-1.3,1.0,2.1
22.591,-0.3,1.4,2.6
22.712,-0.7,2.1,3.0
22.722,-1.1,2.5,2.9
22.723,-0.8,2.2,2.8
22.73,-1.1,1.9,3.1
22.734,-0.6,2.5,3.5
22.791,0.2,2.3,3.6
22.796,0.1,2.0,3.5
22.798,-0.0,2.0,3.2
22.801,-0.0,1.4,2.4
22.903,-0.1,1.3,2.1
22.904,0.8,1.0,1.4
22.906,1.8,0.1,-0.2
22.913,-0.4,-0.5,-0.6
23.0,0.5,-0.1,-0.2
23.002,2.6,0.2,0.6
23.003,3.0,0.1,0.4
23.09,0.1,-0.8,-0.2
23.092,-1.3,-0.3,-0.3
23.093,-0.5,-0.1,-0.2
23.095,0.1,-0.3,0.1
23.196,-0.3,0.0,0.4
23.199,-0.5,-0.5,0.1
23.2,-0.5,-0.9,-0.4
23.202,-0.1,-0.6,-0.2
23.29,0.5,0.3,0.5
23.296,0.3,0.0,0.5
23.298,-0.0,-0.0,0.4
23.3,-0.0,0.1,0.5
23.408,-0.3,0.2,0.7
23.411,-0.5,0.2,0.6
23.412,-0.5,0.3,0.6
23.414,-0.4,0.4,0.6
23.49,-0.8,0.5,0.4
23.492,-0.4,0.4,0.5
23.497,-0.6,0.1,0.1
23.498,-0.6,0.1,0.1
23.595,-0.5,0.1,0.3
23.596,-0.6,0.0,0.2
23.598,-0.4,-0.0,0.3
23.599,-0.2,-0.0,0.3
23.69,0.0,-0.1,0.2
23.691,0.2,-0.1,0.1
23.697,0.2,-0.1,0.1
23.699,0.3,-0.2,0.0
23.804,0.9,-0.2,-0.3
23.806,1.8,-0.3,-0.3
23.807,1.2,-0.7,-0.5
23.817,0.3,-0.7,-0.4
23.898,-0.0,-1.0,-0.2
23.9,-0.2,-0.4,0.3
23.905,-0.8,-1.1,-0.2
23.906,-0.9,-1.1,-0.2
23.991,-1.0,-1.0,-0.0
23.992,-1.4,-1.1,0.1
23.994,-1.0,-1.3,-0.1
23.996,0.3,-1.2,0.2
24.07,1.3,-0.9,0.7
24.072,0.5,-0.9,0.6
24.073,-0.1,-0.9,0.3
24.075,0.1,-0.8,0.5
24.21,0.4,-0.7,0.5
24.212,0.6,-0.7,0.6
24.222,0.7,-0.4,0.8
24.224,1.1,-0.2,0.8
24.278,-0.2,-1.4,0.3
24.28,0.2,-1.1,1.3
24.282,-1.1,-1.0,0.7
24.283,-1.7,-1.5,-0.2
24.391,0.5,-0.7,0.2
24.392,-2.8,-0.9,-1.2
24.394,-4.5,-1.6,-2.3
24.395,-4.6,-1.3,-3.0
24.496,-2.4,0.5,-2.5
24.498,-1.6,1.5,-2.0
24.503,-0.7,2.2,-1.2
24.505,0.6,2.9,-0.5
24.605,1.8,3.8,0.6
24.614,1.7,3.9,1.1
24.616,1.8,3.9,1.6
24.618,1.8,3.9,2.0
24.688,-1.1,1.7,1.7
24.69,-1.4,0.9,1.2
24.692,-0.2,0.5,1.1
24.693,2.1,-1.5,1.1
24.803,0.8,-0.8,-0.2
24.805,1.4,-0.1,-0.2
24.807,1.6,-2.1,1.4
24.809,-1.2,-1.1,-0.2
24.9,-0.2,-0.6,-0.9
24.902,0.9,0.2,0.1
24.907,0.3,0.6,0.5
24.909,-0.9,0.9,0.2
24.989,-0.1,0.8,0.2
24.991,0.1,0.6,0.2
25.003,0.3,0.4,0.1
25.004,0.4,0.2,0.3
25.068,0.0,-0.2,0.4
25.069,-0.2,-0.3,0.3
25.074,-0.1,-0.4,0.2
25.197,-0.1,-0.4,0.2
25.2,-0.5,0.0,0.0
25.202,-0.1,-0.0,-0.1
25.203,-0.1,-0.3,-0.2
25.282,-0.2,0.1,-0.2
25.285,0.1,-0.0,-0.4
25.286,-0.2,-0.1,-0.5
25.288,-0.2,-0.0,-0.5
25.301,0.1,-0.0,-0.6
25.376,0.0,-0.4,-0.2
25.378,-0.0,-0.6,-0.0
25.38,-0.2,-0.8,0.1
25.471,-0.7,-1.0,0.7
25.475,-0.3,-0.8,0.2
25.477,-0.2,-0.7,0.4
25.478,-0.5,-0.6,0.6
25.595,-0.1,-0.4,0.6
25.603,0.2,-0.3,0.6
25.605,0.4,-0.4,0.6
25.606,0.4,-0.5,0.6
25.681,0.3,-0.6,0.6
25.684,0.2,-0.6,0.7
25.688,0.0,-0.5,0.6
25.691,-2.6,-0.6,-0.6
25.702,0.4,-0.7,1.3
25.767,-0.7,-0.8,-1.0
25.769,-2.7,-0.3,-2.5
25.77,-2.8,-0.6,-2.1
25.888,-2.0,-0.5,-2.0
25.891,-1.8,-0.2,-1.6
25.892,-1.8,-0.0,-1.3
26.002,-1.2,0.4,-1.0
26.004,0.1,1.0,-0.4
26.007,1.0,1.3,0.7
26.009,1.5,2.5,1.2
26.01,-0.1,3.1,0.7
26.012,-1.0,0.3,1.2
26.105,0.9,-0.5,0.6
26.106,2.3,0.7,0.7
26.116,5.1,0.5,1.1
26.117,5.8,-0.2,1.5
26.201,1.5,-1.0,0.2
26.203,1.4,-1.4,0.4
26.204,0.5,-1.0,0.6
26.206,0.2,-1.2,0.5
26.297,0.6,-1.2,0.5
26.299,0.0,-1.1,0.4
26.304,-0.2,-1.0,0.5
26.305,0.2,-0.7,0.6
26.389,0.1,-0.3,0.6
26.391,-0.4,0.1,0.6
26.392,-0.5,0.3,0.5
26.505,-0.0,0.7,0.5
26.508,0.0,0.8,0.2
26.523,0.1,0.8,0.3
26.524,0.2,0.7,0.3
26.59,0.2,0.6,0.4
26.597,0.6,0.3,0.4
26.598,0.5,0.1,0.5
26.6,0.3,-0.3,0.4
26.691,0.2,-0.4,0.3
26.694,0.0,-0.7,0.5
26.695,0.2,-0.9,0.6
26.697,0.3,-1.1,0.7
26.79,0.1,-1.3,0.8
26.793,0.3,-1.3,1.0
26.795,0.5,-1.4,0.9
26.796,0.5,-1.5,0.9
26.898,0.5,-1.4,0.8
26.909,0.6,-1.4,0.5
26.911,0.6,-1.2,0.2
26.912,1.6,-1.7,0.3
26.993,0.9,-1.6,0.1
26.997,1.2,-1.8,0.3
26.998,1.0,-1.8,0.3
27.003,1.2,-1.5,0.7
27.096,0.9,-1.0,0.8
27.099,1.4,-0.9,0.6
27.102,0.3,-0.5,0.5
27.104,0.0,0.2,1.1
27.193,0.2,0.6,1.2
27.197,0.5,1.0,1.2
27.198,-0.0,0.6,1.1
27.207,-0.6,0.4,1.4
27.284,-3.0,0.3,3.3
27.306,-1.0,-0.6,2.4
27.308,-1.9,-0.9,1.6
27.31,-2.5,-1.6,1.4
27.386,-1.9,-2.0,0.9
27.393,-0.2,-2.3,1.5
27.395,-1.0,-2.7,1.1
27.51,-2.3,-2.9,0.6
27.511,-2.5,-2.4,0.7
27.515,-0.6,-1.5,-0.2
27.619,-0.4,-1.2,-0.2
27.621,-0.4,-0.8,-0.1
27.647,-0.0,-0.2,0.3
27.651,1.4,1.0,1.3
27.652,1.7,1.7,2.1
27.659,1.6,2.0,2.7
27.722,0.5,1.8,3.0
27.725,0.6,2.0,4.0
27.731,1.3,2.3,4.0
27.732,1.2,2.8,3.0
27.791,1.8,2.2,3.7
27.799,1.5,2.2,2.6
27.801,1.1,2.7,2.2
27.802,6.4,1.2,-1.1
27.892,6.2,1.3,2.0
27.895,-1.9,-1.0,0.5
27.897,-2.3,0.3,0.7
27.898,0.7,1.2,0.2
27.998,3.1,0.8,0.8
28.004,0.0,0.4,1.0
28.011,-0.3,-0.0,0.6
28.022,0.2,-0.0,0.4
28.098,0.1,0.1,0.5
28.105,1.0,0.2,0.4
28.107,0.8,0.1,0.4
28.195,0.3,0.1,0.3
28.197,0.5,0.0,0.2
28.2,0.4,0.0,0.2
28.201,0.1,-0.1,0.3
28.295,0.1,-0.1,0.2
28.297,0.3,0.0,0.3
28.302,0.5,0.1,0.5
28.304,0.3,0.2,0.7
28.406,0.1,0.4,0.7
28.408,0.1,0.5,0.7
28.411,0.2,0.6,0.7
28.426,0.1,0.7,0.7
28.493,0.0,0.8,0.8
28.495,-0.1,0.9,0.9
28.498,-0.6,0.8,1.0
28.5,0.2,1.1,1.1
28.592,0.2,1.0,0.9
28.594,0.1,1.0,0.9
28.597,0.1,0.9,0.8
28.599,0.1,0.9,0.7
28.689,0.1,0.8,0.7
28.691,0.2,0.8,0.7
28.694,-1.0,0.3,0.3
28.696,-1.4,0.3,1.2
28.797,1.4,0.9,1.6
28.8,-0.6,0.5,-0.2
28.811,0.2,0.5,0.7
28.812,-0.2,0.3,0.7
28.895,-0.1,0.2,0.8
28.897,-0.1,-0.0,0.8
28.9,-0.1,-0.3,1.0
28.901,-0.3,-0.5,1.0
28.989,-0.4,-0.5,1.0
28.991,-0.3,-0.5,1.0
28.998,-2.0,-0.8,0.4
29.0,1.4,0.0,1.7
29.094,-0.5,-0.2,0.4
29.096,0.5,0.1,0.6
29.099,0.0,-0.3,0.8
29.101,0.2,-0.5,0.9
29.205,0.1,-0.7,1.0
29.207,0.4,-0.9,1.1
29.218,0.1,-1.0,1.0
29.238,-0.2,-1.0,0.8
29.292,0.8,-0.9,0.8
29.294,0.4,-0.9,0.9
29.3,1.0,-0.7,0.6
29.302,1.3,-0.6,0.6
29.393,1.4,-0.4,0.6
29.395,0.7,-0.6,0.5
29.398,0.6,-0.5,0.8
29.4,0.4,-0.5,0.9
29.489,-0.0,-0.2,1.3
29.491,-1.1,-0.9,0.9
29.495,-1.4,-1.9,0.6
29.499,0.2,-2.3,-1.8
29.605,0.0,-1.9,-3.1
29.615,0.6,-1.7,-4.1
29.618,-1.3,-2.4,-4.5
29.62,-1.5,-1.8,-4.7
29.691,-2.1,-1.1,-4.8
29.696,-2.2,-0.5,-4.5
29.7,-2.9,0.4,-4.1
29.79,-4.6,0.9,-3.7
29.792,-4.6,1.6,-2.6
29.793,-3.6,2.5,-1.6
29.802,-1.5,3.6,-0.6
29.889,-0.8,4.0,-0.3
29.891,-0.9,4.5,-0.1
29.892,0.5,5.1,0.6
29.895,1.8,3.4,0.6
30.002,1.0,2.7,0.9
30.012,1.0,2.7,1.2
30.014,1.4,2.3,1.9
30.017,-3.5,-4.4,-5.0
30.096,0.7,2.0,2.2
30.098,2.2,0.1,-2.1
30.099,2.9,-0.7,0.9
30.103,-2.5,1.2,-1.1
30.19,0.7,-0.3,-2.2
30.191,1.6,-1.6,-0.7
30.2,0.2,0.1,-1.2
30.205,-0.7,-0.8,-0.1
30.305,0.5,-1.9,-1.7
30.307,1.6,-1.2,-0.5
30.308,1.0,-0.4,-0.3
30.311,1.0,-0.7,0.2
30.392,2.4,-0.8,0.5
30.394,1.1,-1.1,-0.3
30.395,0.2,-0.1,-0.1
30.4,0.4,-0.4,0.2
30.49,0.5,-0.5,0.1
30.492,0.5,-0.6,0.2
30.493,0.6,-0.6,0.5
30.497,0.3,-0.3,0.7
30.593,-0.1,-0.0,0.6
30.594,-0.4,0.2,0.5
30.596,-0.6,0.3,0.5
30.599,-1.0,0.4,0.4
30.702,-1.7,0.3,0.5
30.704,-2.9,0.2,0.6
30.705,-3.0,0.2,0.4
30.716,-1.4,-0.1,0.4
30.818,0.1,0.1,0.5
30.819,-0.2,-0.0,0.7
30.821,-0.6,-0.2,0.3
30.824,-0.3,-0.3,0.6
30.897,-0.4,-0.5,0.4
30.905,-0.2,-0.4,0.6
30.909,0.2,-0.5,0.8
30.914,0.4,-0.9,0.9
30.915,0.6,-1.2,1.0
30.989,0.5,-1.1,1.2
30.991,0.4,-1.1,1.3
30.994,0.2,-1.3,1.0
31.096,-0.1,-1.2,1.0
31.098,-0.4,-1.2,0.8
31.1,0.1,-1.0,0.7
31.119,-0.4,-0.8,0.5
31.188,-0.5,-0.9,0.7
31.193,0.3,-0.7,0.6
31.211,0.6,-0.6,1.0
31.215,1.2,-0.6,1.8
31.286,0.8,-1.3,2.0
31.292,1.2,-1.8,1.9
31.294,2.7,-2.3,1.8
31.434,0.6,-0.8,1.5
31.436,-0.1,-0.7,-0.2
31.438,-1.9,-0.0,-1.3
31.439,-1.4,0.0,-1.7
31.553,-3.1,0.3,-2.2
31.555,-3.7,0.3,-2.2
31.559,-3.1,0.5,-2.1
31.569,-1.3,1.0,-1.6
31.598,0.6,1.6,-0.8
31.599,0.7,2.0,-0.2
31.682,0.7,2.8,0.5
31.684,0.5,3.4,0.9
31.687,8.0,-0.9,1.8
31.689,-2.1,-0.2,-0.6
31.715,-4.2,2.4,-1.0
31.716,2.2,-0.5,1.5
31.729,0.8,-0.5,0.0
31.785,-0.1,-1.1,0.2
31.787,-0.1,-0.6,0.2
31.788,-0.5,-1.1,0.3
31.897,-0.5,-0.9,-0.2
31.899,0.7,-1.2,-0.5
31.916,1.1,-1.1,-0.5
31.917,0.8,-1.3,-0.2
31.995,1.3,-1.3,-0.5
31.997,0.8,-1.0,-0.5
31.998,0.5,-0.8,-0.5
32.0,0.6,-0.6,-0.2
32.089,-0.1,0.0,0.4
32.091,-0.8,0.3,0.5
32.098,-1.0,0.4,1.0
32.099,-1.0,0.7,1.0
32.202,-0.5,0.5,1.3
32.204,-0.2,0.6,1.3
32.205,-0.2,0.7,1.2
32.207,-0.2,0.6,1.2
32.305,0.1,0.5,1.1
32.316,0.2,0.3,1.2
32.317,0.2,0.3,1.2
32.319,0.5,0.0,1.4
32.388,0.6,-0.0,1.6
32.39,0.6,0.3,1.5
32.398,0.5,0.2,1.5
32.399,0.3,0.5,1.5
32.488,0.7,0.5,1.7
32.489,0.4,1.0,1.3
32.496,0.8,0.8,1.7
32.499,0.6,1.2,1.6
32.629,0.7,0.9,1.6
32.63,0.4,0.9,1.5
32.632,0.6,0.9,1.4
32.633,0.3,1.0,1.3
32.719,-0.5,1.0,1.0
32.721,-0.5,-0.1,1.4
32.722,0.6,-0.5,1.2
32.727,-1.0,0.6,1.1
32.73,1.2,-0.4,1.6
32.817,1.0,0.0,1.0
32.818,0.5,0.5,0.4
32.824,-0.8,0.3,0.1
32.828,-0.3,0.5,0.2
32.915,-0.2,0.5,-0.3
32.917,-1.1,0.7,-0.2
32.918,-1.8,0.7,0.1
32.926,0.0,1.2,-0.0
33.021,0.4,1.1,0.0
33.023,0.4,1.0,0.1
33.024,0.4,0.9,0.1
33.038,0.4,0.6,0.1
33.114,0.5,0.5,0.2
33.115,0.7,0.4,0.3
33.117,0.6,0.3,0.4
33.122,0.7,-0.0,0.6
33.204,0.6,-0.1,0.6
33.206,0.6,-0.1,0.6
33.208,0.7,-0.1,0.6
33.211,0.7,-0.1,0.5
33.309,0.7,-0.1,0.4
33.312,0.8,-0.1,0.4
33.313,0.7,-0.2,0.4
33.429,0.6,-0.3,0.3
33.43,0.5,-0.2,0.2
33.432,0.4,-0.2,0.2
33.442,0.4,-0.2,0.2
33.52,0.1,-0.2,0.1
33.522,0.1,-0.2,0.0
33.524,0.1,-0.3,0.1
33.526,0.1,-0.3,0.1
33.617,0.1,-0.3,0.0
33.618,0.1,-0.2,0.1
33.622,0.3,-0.1,0.1
33.624,0.3,0.1,0.2
33.688,-0.0,0.2,0.5
33.69,0.0,0.2,0.5
33.691,-0.1,0.1,0.5
33.693,-0.2,0.0,0.5
33.818,-0.1,-0.1,0.4
33.819,-0.1,-0.0,0.3
33.829,-0.0,-0.0,0.3
33.837,0.0,0.0,0.3
33.921,0.1,0.2,0.2
33.923,0.1,0.2,0.2
33.925,0.1,0.2,0.2
33.926,0.1,0.2,0.1
34.013,0.0,0.2,0.1
34.014,-0.0,0.2,0.1
34.023,0.2,0.1,0.5
34.026,0.2,0.3,0.5
34.113,-0.1,0.2,0.5
34.115,-0.1,0.4,0.5
34.116,-0.2,0.2,0.2
34.118,-0.2,0.1,0.0
34.226,-0.1,-0.0,-0.1
34.235,-0.0,-0.0,-0.1
34.237,-0.2,0.0,-0.2
34.239,-0.3,-0.1,-0.3
34.312,-0.2,-0.1,-0.2
34.314,-0.0,0.0,-0.1
34.315,0.1,0.0,-0.1
34.317,0.1,0.0,0.0
34.415,0.1,0.2,0.1
34.416,0.0,0.2,0.2
34.418,-0.1,0.2,0.2
34.419,-0.1,0.2,0.2
34.524,-0.2,-0.1,0.1
34.526,-0.1,-0.1,-0.0
34.533,-0.1,-0.2,0.1
34.535,0.2,-0.0,0.5
34.616,0.1,-0.0,0.2
34.618,-0.0,-0.1,0.0
34.619,-0.1,-0.1,0.0
34.621,-0.0,0.0,0.1
34.72,0.0,0.0,0.1
34.722,0.1,0.0,0.1
34.724,0.1,0.0,0.2
34.725,-0.1,0.0,0.0
34.817,-0.2,0.1,-0.1
34.819,-0.1,0.0,-0.1
34.821,-0.1,-0.1,-0.1
34.822,-0.2,-0.0,-0.1
34.928,-0.1,0.4,0.2
34.93,-0.1,0.3,0.2
34.932,-0.0,0.5,0.7
34.934,0.1,1.0,0.6
35.012,-0.1,1.0,0.4
35.013,-0.2,0.6,0.1
35.015,-0.2,0.4,-0.2
35.017,-0.2,0.2,-0.3
35.125,0.2,0.2,0.0
35.126,0.1,0.2,-0.0
35.131,0.0,0.1,0.0
35.134,0.1,0.4,0.3
35.189,-0.0,0.3,0.0
35.191,-0.1,0.3,-0.0
35.192,-0.3,0.5,-0.1
35.194,-0.5,0.9,0.1
35.314,0.2,0.2,0.7
35.316,0.2,0.3,0.6
35.317,-0.2,0.3,-0.1
35.412,-0.2,0.2,-0.1
35.419,-0.3,0.0,-0.1
35.425,-0.3,-0.2,-0.0
35.428,-0.3,-0.4,0.1
35.525,-0.3,-0.3,-0.1
35.529,-0.1,-0.6,-0.3
35.531,0.2,-0.8,-0.1
35.533,0.3,-0.8,-0.1
35.536,-0.1,-1.0,0.7
35.6,-0.0,-1.4,-0.2
35.601,0.0,-1.2,0.6
35.603,0.1,-1.0,0.6
35.608,-0.1,-0.5,0.4
35.735,-2.2,-0.4,0.9
35.737,-1.1,-0.2,0.4
35.747,-0.2,-0.2,0.8
35.821,0.2,0.1,0.8
35.825,0.2,-0.2,0.3
35.826,0.1,-0.3,0.2
35.831,-0.0,-0.1,0.3
35.833,-0.2,0.1,0.3
35.911,-0.1,-0.0,0.1
35.913,-0.1,-0.0,0.2
35.914,-0.2,0.1,0.2
36.025,-0.2,0.2,0.2
36.028,0.0,-0.1,-0.2
36.029,-0.1,0.0,-0.0
36.034,-0.2,0.1,0.2
36.035,-0.2,-0.1,0.3
