gyro_time_list,gyro_x_list,gyro_y_list,gyro_z_list
0.0,-0.0,0.2,0.1
0.001,-0.1,0.3,0.1
0.007,0.5,0.2,0.4
0.009,-0.5,0.3,-0.0
0.102,0.5,0.1,0.2
0.104,0.2,0.0,0.1
0.106,0.2,0.0,0.0
0.107,0.1,0.0,-0.0
0.198,-0.0,-0.0,-0.1
0.2,-0.1,-0.0,-0.1
0.201,-0.1,-0.0,-0.1
0.203,-0.2,-0.0,-0.1
0.313,-0.9,0.0,-0.2
0.315,-1.8,0.1,-0.3
0.324,-3.4,0.3,0.1
0.325,-5.1,0.4,1.1
0.402,-3.5,0.2,1.2
0.404,-3.6,0.1,1.3
0.405,-3.9,0.2,1.5
0.407,-3.8,0.3,1.7
0.498,-4.2,0.5,2.1
0.5,-4.5,0.4,2.3
0.506,-4.5,0.4,2.4
0.508,-3.9,0.4,2.5
0.605,-2.6,0.6,2.8
0.611,-2.4,0.7,2.9
0.612,-2.3,0.9,3.0
0.614,-2.3,0.9,3.0
0.727,-2.6,0.9,3.0
0.729,-2.9,0.9,3.0
0.73,-3.1,0.8,3.0
0.74,-3.0,0.8,3.0
0.8,-2.7,0.8,2.9
0.808,-2.7,0.8,2.9
0.81,-2.8,0.9,2.9
0.812,-2.9,0.8,3.0
0.904,-3.1,0.7,3.0
0.906,-3.1,0.5,3.0
0.908,-2.9,0.3,2.9
0.909,-2.5,0.1,2.8
1.006,-1.6,-0.1,2.3
1.007,-1.2,-0.2,2.0
1.009,-0.9,-0.3,1.7
1.011,-0.8,-0.3,1.3
1.108,-0.7,-0.2,0.5
1.114,-0.6,-0.2,0.2
1.124,-0.5,-0.1,-0.1
1.126,-0.3,-0.1,-0.2
1.203,-0.0,-0.1,-0.4
1.204,-0.1,-0.1,-0.5
1.209,-0.2,-0.1,-0.5
1.211,-0.3,-0.1,-0.4
1.307,-0.3,-0.2,-0.4
1.309,-0.3,-0.1,-0.4
1.31,-0.2,-0.1,-0.4
1.312,-0.1,-0.1,-0.3
1.397,-0.0,-0.1,-0.3
1.399,0.0,-0.2,-0.3
1.4,0.0,-0.2,-0.3
1.402,-0.1,-0.3,-0.3
1.513,-0.2,-0.4,-0.3
1.522,-0.3,-0.4,-0.2
1.524,-0.3,-0.4,-0.1
1.526,-0.2,-0.3,-0.1
1.601,-0.1,-0.3,0.1
1.603,-0.0,-0.3,0.1
1.609,-0.0,-0.3,0.1
1.611,-0.1,-0.3,0.0
1.706,-0.1,-0.2,-0.0
1.707,-0.1,-0.2,-0.0
1.709,-0.2,-0.3,-0.0
1.711,-0.3,-0.3,-0.1
1.804,-0.4,-0.2,-0.2
1.809,-0.4,-0.2,-0.2
1.811,-0.4,-0.1,-0.2
1.812,-0.3,-0.1,-0.1
1.924,-0.3,-0.1,-0.0
1.925,-0.3,-0.0,0.1
1.927,-0.3,0.0,0.1
1.928,-0.2,0.1,0.2
2.005,-0.1,0.2,0.3
2.007,-0.0,0.2,0.3
2.009,0.1,0.2,0.4
2.01,0.2,0.3,0.5
2.104,0.4,0.5,0.8
2.106,0.5,0.5,0.8
2.107,0.5,0.5,0.8
2.109,0.4,0.5,0.8
2.211,0.5,0.5,0.7
2.218,0.6,0.5,0.6
2.22,0.7,0.4,0.6
2.303,0.7,0.5,0.5
2.318,0.6,0.4,0.4
2.32,0.6,0.5,0.3
2.322,0.5,0.5,0.3
2.402,0.3,0.4,0.3
2.406,-0.6,0.4,0.2
2.407,-0.9,0.4,0.1
2.412,-0.9,0.4,0.1
2.548,-0.6,0.5,-0.0
2.551,0.5,0.7,-0.3
2.552,1.0,0.6,-0.5
2.554,1.0,0.3,-0.6
2.644,0.6,0.1,-0.8
2.647,-0.3,-0.1,-1.0
2.648,-0.5,-0.2,-1.1
2.65,-0.5,-0.2,-1.1
2.67,-0.4,-0.2,-1.1
2.719,0.0,-0.0,-1.0
2.721,0.2,0.0,-1.0
2.723,0.3,0.1,-1.0
2.729,0.3,0.1,-1.0
2.823,0.5,0.1,-0.9
2.825,0.6,0.2,-0.8
2.827,0.7,0.2,-0.7
2.946,0.8,0.1,-0.6
2.949,0.6,0.0,-0.3
2.951,0.4,-0.0,-0.1
2.956,0.1,-0.1,0.0
2.958,-0.2,-0.2,0.1
3.034,-0.4,-0.2,0.3
3.041,-0.4,-0.2,0.4
3.051,-0.3,-0.2,0.5
3.053,-0.2,-0.1,0.6
3.127,0.1,0.1,0.8
3.129,0.3,0.1,1.0
3.131,0.4,0.1,1.1
3.132,0.5,0.1,1.2
3.204,0.3,-0.1,1.4
3.206,0.1,-0.2,1.4
3.208,0.1,-0.3,1.4
3.209,0.1,-0.4,1.3
3.295,0.1,-0.5,0.8
3.297,0.1,-0.5,0.5
3.412,-0.2,-0.5,0.2
3.414,-0.5,-0.7,-0.1
3.417,-0.8,-0.8,-0.3
3.427,-0.7,-0.8,-0.4
3.526,-0.7,-0.7,-0.5
3.527,-0.7,-0.7,-0.6
3.537,-0.5,-0.5,-0.6
3.539,-0.5,-0.5,-0.7
3.629,-0.5,-0.5,-0.7
3.631,-0.6,-0.5,-0.7
3.634,-0.8,-0.4,-0.7
3.639,-0.8,-0.4,-0.7
3.641,-0.8,-0.3,-0.7
3.697,-0.8,-0.3,-0.6
3.705,-0.8,-0.2,-0.4
3.706,-0.6,-0.1,-0.3
3.708,-0.4,0.1,-0.1
3.802,-0.1,0.2,0.1
3.816,0.3,0.4,0.6
3.825,0.4,0.6,0.8
3.929,0.5,0.6,0.9
3.931,0.5,0.6,1.0
3.934,0.1,0.6,1.1
3.935,0.0,0.7,1.0
4.034,0.2,0.7,1.0
4.036,0.4,0.8,1.0
4.039,0.5,0.6,0.9
4.041,0.4,0.6,0.8
4.042,0.2,0.6,0.7
4.105,-0.1,0.4,0.7
4.113,-0.5,0.2,0.5
4.115,-0.3,0.2,0.3
4.117,-0.1,0.2,0.1
4.193,0.1,0.0,-0.2
4.21,-0.3,-0.3,-0.6
4.211,-0.6,-0.3,-0.8
4.326,-0.6,-0.3,-0.9
4.327,-0.5,-0.3,-1.0
4.331,-0.0,-0.2,-1.0
4.333,0.0,-0.1,-1.0
4.405,-0.0,-0.1,-1.0
4.407,-0.0,-0.1,-1.0
4.41,0.0,-0.0,-1.0
4.412,0.1,0.1,-1.0
4.413,0.1,0.1,-1.0
4.523,0.2,0.2,-1.0
4.526,0.3,0.3,-0.8
4.528,0.4,0.3,-0.7
4.645,0.5,0.3,-0.5
4.658,0.5,0.3,-0.3
4.661,0.3,0.2,0.0
4.662,0.1,0.2,0.2
4.664,0.1,0.3,0.3
4.726,0.1,0.3,0.4
4.733,0.3,0.3,0.6
4.74,0.3,0.2,0.6
4.743,0.4,0.2,0.7
4.821,0.4,0.2,0.7
4.825,0.4,0.1,0.8
4.83,0.4,0.1,0.8
4.834,0.5,0.1,0.8
4.933,0.5,0.1,0.9
4.944,0.5,-0.0,1.1
4.946,0.5,-0.2,1.0
4.957,0.6,-0.2,0.9
5.021,0.8,-0.1,0.7
5.024,1.0,-0.0,0.1
5.029,0.8,-0.2,-0.1
5.127,0.6,-0.4,-0.2
5.13,0.3,-0.6,-0.3
5.133,0.1,-0.7,-0.5
5.136,0.2,-0.6,-0.6
5.202,0.4,-0.5,-0.7
5.204,0.6,-0.4,-0.8
5.207,0.6,-0.4,-0.9
5.208,0.3,-0.5,-0.9
5.333,0.1,-0.5,-0.9
5.335,0.1,-0.5,-0.9
5.338,0.0,-0.4,-0.9
5.43,0.0,-0.4,-0.9
5.431,-0.0,-0.3,-0.8
5.436,-0.0,-0.2,-0.7
5.439,0.2,-0.0,-0.5
5.441,0.3,0.0,-0.3
5.521,0.4,0.1,-0.2
5.526,0.5,0.1,-0.1
5.53,0.5,0.3,0.1
5.531,0.6,0.3,0.2
5.627,0.6,0.3,0.3
5.629,0.5,0.3,0.3
5.632,0.0,0.3,0.4
5.633,-0.1,0.4,0.5
5.734,-0.1,0.5,0.6
5.736,0.1,0.5,0.7
5.752,0.0,0.4,0.9
5.753,-0.3,0.2,0.9
5.824,-0.8,0.1,0.8
5.825,-1.0,0.2,0.6
5.829,-0.6,0.3,0.4
5.836,0.2,0.3,0.3
5.922,1.0,0.5,0.1
5.924,1.7,0.6,-0.1
5.927,1.9,0.4,-0.3
5.929,1.7,0.2,-0.5
6.022,1.3,0.1,-0.6
6.024,0.9,-0.1,-0.7
6.027,0.2,-0.1,-1.0
6.036,0.1,-0.0,-1.1
6.132,0.2,0.1,-1.1
6.134,0.4,0.3,-1.1
6.145,1.0,0.5,-1.0
6.158,1.1,0.6,-0.9
6.225,1.2,0.6,-0.8
6.226,1.1,0.6,-0.6
6.231,1.1,0.5,-0.4
6.232,1.1,0.5,-0.3
6.326,1.0,0.3,-0.3
6.328,0.9,0.2,-0.2
6.331,0.7,0.2,-0.2
6.333,0.8,0.3,-0.1
6.425,0.9,0.3,-0.0
6.427,1.1,0.3,0.0
6.43,1.3,0.3,0.1
6.436,1.3,0.4,0.2
6.537,1.3,0.3,0.3
6.547,1.3,0.3,0.3
6.55,1.1,0.3,0.4
6.561,1.1,0.3,0.4
6.625,1.2,0.4,0.6
6.626,1.3,0.5,0.7
6.63,1.8,0.7,1.0
6.634,1.9,0.7,1.0
6.721,1.8,0.5,0.9
6.723,1.9,0.4,0.7
6.726,2.0,0.2,0.1
6.838,1.8,0.1,-0.2
6.839,1.4,-0.2,-0.4
6.841,0.8,-0.4,-0.6
6.844,0.2,-0.6,-0.6
6.921,0.2,-0.6,-0.6
6.942,0.2,-0.6,-0.6
6.943,0.4,-0.7,-0.6
6.947,0.3,-0.7,-0.9
7.025,0.2,-0.6,-1.0
7.026,0.2,-0.6,-1.1
7.028,0.2,-0.6,-1.1
7.034,0.5,-0.5,-0.9
7.127,0.4,-0.5,-0.9
7.13,0.2,-0.5,-0.8
7.132,-0.0,-0.4,-0.7
7.135,-0.2,-0.3,-0.5
7.237,-0.2,-0.2,-0.4
7.239,-0.1,-0.2,-0.2
7.241,-0.0,-0.0,-0.1
7.244,0.1,0.0,0.0
7.325,0.1,0.2,0.1
7.326,0.3,0.5,0.3
7.328,0.5,0.7,0.5
7.331,1.0,1.0,0.7
7.421,1.2,1.0,0.8
7.423,1.1,0.9,0.7
7.425,0.8,0.8,0.6
7.428,0.2,0.7,0.4
7.528,0.0,0.7,0.4
7.53,0.0,0.7,0.4
7.531,0.0,0.7,0.4
7.535,-0.0,0.6,0.3
7.635,-0.1,0.5,0.3
7.636,-0.1,0.6,0.4
7.638,-0.1,0.7,0.4
7.649,-0.1,0.9,0.7
7.723,-0.1,0.7,0.7
7.728,-0.0,0.6,0.5
7.73,0.2,0.6,0.3
7.733,0.6,0.5,-0.2
7.825,0.7,0.4,-0.3
7.826,0.8,0.2,-0.4
7.828,0.6,0.0,-0.3
7.831,-0.0,-0.1,-0.2
7.907,-0.4,-0.2,-0.2
7.909,-0.6,-0.3,-0.2
7.911,-0.7,-0.2,-0.1
7.914,-0.5,-0.2,-0.2
8.034,-0.3,-0.1,-0.2
8.036,-0.0,-0.0,-0.2
8.037,0.3,0.1,-0.2
8.131,0.6,0.2,-0.2
8.133,0.7,0.3,-0.2
8.134,0.6,0.3,-0.2
8.136,0.5,0.3,-0.2
8.14,0.4,0.3,-0.0
8.222,0.2,0.2,0.0
8.225,0.1,0.1,0.1
8.229,-0.0,0.1,0.0
8.233,0.0,0.2,-0.0
8.321,0.3,0.3,0.0
8.323,0.5,0.4,0.0
8.324,0.7,0.4,0.1
8.331,0.9,0.5,0.2
8.432,0.9,0.5,0.2
8.434,1.0,0.5,0.3
8.451,1.1,0.5,0.4
8.523,1.0,0.3,0.6
8.528,0.8,0.2,0.7
8.529,0.6,-0.0,0.6
8.534,0.6,-0.0,0.4
8.635,0.7,-0.2,-0.1
8.637,0.6,-0.4,-0.2
8.638,0.4,-0.6,-0.2
8.64,0.1,-0.9,-0.2
8.73,-0.8,-1.3,-0.4
8.731,-1.2,-1.3,-0.5
8.733,-1.4,-1.4,-0.5
8.736,-1.1,-1.3,-0.5
8.838,-0.5,-1.0,-0.4
8.84,-0.5,-0.9,-0.3
8.863,-0.6,-0.8,-0.3
8.872,-0.7,-0.7,-0.2
8.927,-0.8,-0.6,-0.1
8.93,-0.8,-0.5,0.0
8.935,-0.9,-0.5,0.1
8.936,-0.9,-0.4,0.3
9.022,-1.0,-0.2,0.5
9.023,-1.0,-0.1,0.6
9.025,-0.9,-0.0,0.6
9.026,-0.7,0.1,0.7
9.135,-0.2,0.4,1.0
9.136,0.0,0.5,1.1
9.138,0.2,0.6,1.2
9.14,0.3,0.7,1.3
9.223,0.2,0.8,1.2
9.236,0.3,0.9,1.2
9.238,0.5,0.9,1.1
9.239,0.6,0.9,1.0
9.324,0.4,0.7,0.7
9.332,0.2,0.6,0.6
9.334,0.0,0.5,0.4
9.336,-0.1,0.3,0.2
9.422,-0.2,0.2,-0.0
9.433,-0.3,0.2,-0.1
9.434,-0.4,0.3,-0.2
9.436,-0.4,0.3,-0.2
9.533,-0.4,0.2,-0.4
9.535,-0.3,0.1,-0.6
9.545,-0.1,0.0,-0.8
9.547,-0.1,-0.0,-1.1
9.621,-0.3,-0.2,-1.4
9.623,-0.4,-0.3,-1.4
9.63,-0.4,-0.3,-1.3
9.633,-0.4,-0.3,-1.3
9.729,-0.2,-0.1,-1.2
9.731,-0.2,0.0,-1.3
9.732,-0.0,0.1,-1.4
9.734,0.1,0.2,-1.5
9.825,0.6,0.3,-1.6
9.827,0.8,0.3,-1.6
9.829,0.8,0.4,-1.5
9.831,0.8,0.4,-1.4
9.935,0.8,0.4,-1.1
9.939,0.8,0.4,-0.9
9.941,0.8,0.4,-0.7
9.948,0.7,0.4,-0.4
10.023,0.4,0.4,0.0
10.025,0.4,0.5,0.2
10.029,0.3,0.4,0.5
10.031,0.2,0.5,0.7
10.13,0.1,0.6,1.0
10.132,0.2,0.6,1.2
10.133,0.3,0.6,1.4
10.138,0.4,0.6,1.6
10.223,0.4,0.5,1.9
10.224,0.4,0.5,2.1
10.226,0.4,0.5,2.2
10.229,0.6,0.3,2.2
10.337,1.0,0.2,1.9
10.344,1.2,0.2,1.6
10.346,1.2,0.1,1.2
10.355,0.9,-0.2,1.0
10.43,0.1,-0.7,0.5
10.432,-0.3,-0.8,0.2
10.433,-0.4,-0.8,-0.1
10.435,-0.4,-0.7,-0.4
10.527,0.4,-0.5,-0.8
10.528,0.7,-0.5,-0.9
10.53,0.9,-0.4,-1.1
10.532,0.8,-0.4,-1.2
10.628,0.6,-0.4,-1.3
10.63,0.5,-0.3,-1.3
10.631,0.5,-0.3,-1.3
10.633,0.5,-0.4,-1.2
10.738,0.4,-0.2,-1.0
10.739,0.3,-0.2,-0.9
10.755,0.1,-0.1,-0.7
10.756,0.0,-0.0,-0.6
10.828,0.2,0.3,-0.4
10.829,0.5,0.4,-0.2
10.831,0.7,0.5,-0.1
10.832,0.9,0.5,0.0
10.924,0.8,0.6,0.3
10.926,0.5,0.6,0.4
10.927,0.2,0.7,0.6
10.931,0.1,0.8,0.9
11.029,-0.0,0.8,1.2
11.03,-0.2,0.8,1.4
11.032,-0.4,0.6,1.4
11.034,-0.6,0.5,1.4
11.138,-1.0,0.4,1.2
11.151,-0.9,0.3,1.1
11.153,-0.6,0.1,1.0
11.154,-0.1,0.1,0.8
11.231,1.1,0.2,0.4
11.232,1.4,0.3,0.1
11.237,1.4,0.3,-0.1
11.239,1.1,0.1,-0.3
11.322,0.3,-0.1,-0.6
11.324,0.1,-0.1,-0.7
11.325,0.1,-0.0,-0.8
11.327,0.3,0.1,-0.8
11.426,1.1,0.4,-0.7
11.431,1.4,0.5,-0.7
11.433,1.6,0.6,-0.7
11.435,1.7,0.5,-0.7
11.548,1.5,0.4,-0.7
11.55,1.3,0.4,-0.7
11.551,1.0,0.3,-0.6
11.555,0.8,0.2,-0.6
11.625,0.6,0.3,-0.5
11.627,0.7,0.3,-0.4
11.629,0.8,0.4,-0.3
11.635,0.9,0.5,-0.1
11.729,1.0,0.6,0.2
11.731,1.1,0.6,0.3
11.732,1.2,0.6,0.4
11.83,1.2,0.6,0.5
11.838,1.1,0.5,0.6
11.841,1.0,0.4,0.6
11.843,0.8,0.4,0.6
11.92,0.8,0.4,0.7
11.937,1.1,0.5,0.8
11.939,1.3,0.5,0.9
11.962,1.4,0.5,1.1
12.026,1.5,0.4,1.2
12.03,1.3,-0.0,1.2
12.031,1.2,-0.2,1.1
12.036,1.1,-0.3,0.9
12.121,0.9,-0.4,0.6
12.124,0.6,-0.6,-0.0
12.126,0.4,-0.8,-0.2
12.127,0.2,-0.9,-0.4
12.234,-0.1,-1.0,-0.5
12.237,-0.3,-1.0,-0.8
12.239,-0.3,-0.9,-0.8
12.24,-0.4,-0.8,-0.8
12.324,-0.3,-0.7,-0.8
12.33,0.0,-0.5,-0.6
12.331,0.2,-0.5,-0.5
12.333,0.2,-0.4,-0.4
12.423,0.1,-0.3,-0.4
12.427,0.0,-0.2,-0.2
12.431,0.0,-0.2,-0.1
12.433,0.0,-0.1,0.0
12.518,0.1,0.0,0.1
12.521,0.0,0.1,0.2
12.523,-0.0,0.1,0.3
12.525,-0.1,0.2,0.3
12.633,-0.1,0.2,0.2
12.638,0.0,0.4,0.2
12.645,0.3,0.5,0.3
12.656,0.7,0.6,0.4
12.724,1.0,0.7,0.5
12.727,0.7,0.7,0.5
12.728,0.3,0.6,0.5
12.73,0.0,0.6,0.5
12.825,-0.1,0.5,0.5
12.828,-0.1,0.3,0.5
12.83,-0.2,0.4,0.4
12.831,-0.1,0.4,0.3
12.924,-0.0,0.5,0.2
12.928,0.3,0.4,-0.1
12.929,0.4,0.3,-0.2
12.931,0.3,0.2,-0.3
13.039,0.2,0.2,-0.4
13.042,0.0,-0.0,-0.5
13.052,-0.1,-0.1,-0.5
13.058,-0.2,-0.2,-0.5
13.12,-0.2,-0.3,-0.5
13.128,-0.2,-0.2,-0.5
13.13,-0.0,-0.2,-0.6
13.131,0.1,-0.1,-0.6
13.225,0.1,-0.1,-0.6
13.228,0.2,-0.0,-0.7
13.23,0.2,0.0,-0.7
13.231,0.3,0.1,-0.6
13.327,0.4,0.1,-0.6
13.33,0.4,0.2,-0.4
13.332,0.3,0.1,-0.2
13.432,0.3,0.1,-0.1
13.433,0.2,0.1,0.0
13.453,-0.1,0.1,0.2
13.455,-0.2,0.0,0.2
13.523,-0.2,0.1,0.3
13.528,-0.1,0.1,0.3
13.531,0.2,0.2,0.3
13.533,0.4,0.3,0.4
13.62,0.5,0.4,0.4
13.621,0.5,0.4,0.5
13.631,0.6,0.3,0.5
13.633,0.6,0.2,0.6
13.72,0.6,0.2,0.6
13.721,0.6,0.2,0.7
13.724,0.6,0.2,0.9
13.726,0.6,0.1,1.0
13.83,0.6,-0.1,0.9
13.832,0.6,-0.1,0.7
13.843,0.5,-0.4,0.2
13.844,0.2,-0.7,0.0
13.94,-0.2,-1.0,-0.2
13.942,-0.5,-1.2,-0.3
13.945,-0.8,-1.2,-0.6
13.946,-0.9,-1.2,-0.7
14.024,-1.0,-1.1,-0.7
14.026,-0.9,-1.0,-0.7
14.029,-0.7,-0.8,-0.6
14.03,-0.7,-0.7,-0.5
14.132,-0.6,-0.6,-0.4
14.134,-0.4,-0.5,-0.3
14.137,-0.5,-0.3,-0.1
14.139,-0.6,-0.2,0.0
14.222,-0.7,-0.2,0.1
14.231,-0.8,-0.2,0.3
14.234,-1.0,-0.1,0.4
14.236,-1.0,-0.0,0.5
14.325,-0.9,0.1,0.6
14.327,-0.7,0.2,0.7
14.33,-0.1,0.4,0.8
14.332,0.0,0.4,0.9
14.424,0.0,0.5,0.9
14.426,-0.0,0.6,1.0
14.429,0.2,0.7,1.1
14.431,0.3,0.8,1.1
14.533,0.3,0.8,1.1
14.535,0.3,0.7,1.0
14.543,0.2,0.5,0.8
14.545,0.1,0.4,0.6
14.62,0.0,0.3,0.4
14.621,0.0,0.3,0.2
14.629,0.2,0.3,0.0
14.631,0.3,0.3,-0.1
14.723,0.3,0.3,-0.1
14.724,0.3,0.2,-0.2
14.731,0.3,0.1,-0.5
14.733,0.3,-0.0,-0.6
14.819,0.4,-0.1,-0.8
14.821,0.3,-0.1,-0.9
14.824,-0.1,-0.3,-1.1
14.83,-0.3,-0.3,-1.2
14.939,-0.3,-0.3,-1.2
14.941,-0.3,-0.3,-1.2
14.944,-0.1,-0.3,-1.2
14.963,-0.0,-0.2,-1.2
15.019,0.1,-0.1,-1.2
15.02,0.3,-0.1,-1.2
15.027,0.3,0.1,-1.1
15.123,0.3,0.1,-1.1
15.125,0.3,0.2,-1.0
15.133,0.4,0.2,-0.9
15.136,0.6,0.3,-0.6
15.224,0.7,0.3,-0.4
15.226,0.7,0.3,-0.2
15.228,0.5,0.3,-0.0
15.231,-0.1,0.2,0.3
15.334,-0.2,0.2,0.3
15.336,-0.2,0.2,0.4
15.338,-0.3,0.2,0.4
15.349,-0.1,0.2,0.6
15.423,0.1,0.3,0.6
15.424,0.3,0.3,0.7
15.426,0.4,0.3,0.8
15.429,0.5,0.4,0.9
15.527,0.6,0.4,1.0
15.529,0.7,0.5,1.2
15.531,0.9,0.5,1.3
15.534,1.2,0.4,1.4
15.624,1.3,0.4,1.2
15.626,1.5,0.3,0.9
15.628,1.6,0.2,0.6
15.631,1.5,-0.1,0.0
15.735,1.2,-0.4,-0.2
15.736,0.8,-0.7,-0.4
15.743,0.6,-0.8,-0.5
15.756,0.2,-0.9,-0.8
15.817,0.2,-0.8,-0.9
15.819,0.3,-0.7,-0.8
15.823,0.4,-0.7,-0.8
15.827,0.7,-0.6,-0.6
15.921,0.6,-0.5,-0.6
15.923,0.5,-0.5,-0.6
15.928,0.4,-0.5,-0.6
16.026,0.3,-0.4,-0.5
16.028,0.3,-0.3,-0.5
16.029,0.2,-0.2,-0.4
16.031,0.2,-0.2,-0.3
16.034,0.2,0.0,-0.2
16.127,0.3,0.1,-0.1
16.128,0.4,0.3,-0.1
16.138,0.5,0.4,0.0
16.142,0.8,0.5,0.1
16.225,0.8,0.5,0.1
16.227,0.7,0.6,0.1
16.229,0.6,0.6,0.2
16.232,0.9,0.8,0.4
16.319,1.1,0.9,0.4
16.321,1.3,1.0,0.5
16.322,1.4,1.0,0.5
16.326,1.5,1.1,0.4
16.422,1.5,1.1,0.4
16.424,1.4,1.1,0.4
16.429,1.3,1.1,0.5
16.433,1.5,0.8,0.5
16.534,1.8,0.7,0.3
16.544,2.0,0.5,0.1
16.546,2.1,0.4,-0.2
16.549,2.0,0.1,-0.6
16.621,1.8,0.0,-0.6
16.623,1.6,-0.0,-0.6
16.625,1.7,-0.1,-0.5
16.725,2.0,-0.0,-0.3
16.726,2.1,0.0,-0.2
16.728,2.2,0.1,-0.1
16.729,2.1,0.2,-0.1
16.83,2.1,0.3,-0.2
16.832,2.1,0.3,-0.2
16.833,2.1,0.3,-0.2
16.835,2.1,0.4,-0.2
16.919,2.1,0.5,-0.1
16.929,2.0,0.5,-0.1
16.93,2.0,0.5,-0.1
16.932,2.0,0.5,-0.1
17.026,2.1,0.6,-0.2
17.031,2.1,0.6,-0.2
17.033,2.0,0.6,-0.3
17.034,2.0,0.6,-0.3
17.121,2.1,0.6,-0.3
17.122,2.1,0.6,-0.3
17.129,2.1,0.6,-0.3
17.132,2.0,0.5,-0.3
17.231,1.9,0.5,-0.4
17.233,1.9,0.5,-0.4
17.242,2.0,0.5,-0.5
17.244,2.2,0.5,-0.6
17.322,2.6,0.5,-1.0
17.324,2.6,0.4,-1.2
17.327,2.4,0.4,-1.5
17.33,2.2,0.4,-1.7
17.423,1.4,0.5,-2.0
17.425,1.3,0.4,-2.2
17.428,1.2,0.3,-2.4
17.43,1.4,0.3,-2.5
17.527,1.3,0.1,-2.8
17.529,1.0,0.0,-2.8
17.531,1.2,-0.0,-2.7
17.532,1.4,-0.1,-2.6
17.636,1.9,-0.3,-2.2
17.638,2.3,-0.4,-1.9
17.639,2.5,-0.5,-1.5
17.641,2.5,-0.6,-1.2
17.719,3.1,-0.7,-0.2
17.72,3.4,-0.6,0.2
17.722,4.0,-0.5,0.6
17.723,4.8,-0.4,1.1
17.825,3.6,0.2,1.5
17.827,3.1,0.4,1.7
17.829,2.3,0.7,1.8
17.83,2.1,0.7,1.8
17.936,1.0,0.7,1.7
17.938,0.4,0.7,1.5
17.94,-0.1,0.7,1.3
17.941,-0.4,0.9,1.2
18.014,-1.9,1.2,1.0
18.024,-1.7,1.2,0.9
18.027,-1.4,1.3,0.9
18.041,-0.6,1.1,0.7
18.119,-0.1,0.8,-0.4
18.12,-1.2,0.3,-0.4
18.125,0.2,0.6,-0.5
18.228,1.3,0.7,-0.6
18.234,0.3,0.9,-1.1
18.236,-0.0,0.8,-1.2
18.238,0.3,0.5,-1.0
18.239,0.3,0.7,-0.7
18.325,-0.2,0.5,-0.5
18.331,-0.5,0.4,-0.5
18.333,-0.4,0.4,-0.5
18.335,-0.3,0.4,-0.4
18.427,-0.5,0.4,-0.4
18.438,-0.3,0.4,-0.4
18.448,-0.2,0.4,-0.4
18.449,-0.2,0.4,-0.4
18.524,0.0,0.3,-0.3
18.526,0.0,0.3,-0.3
18.527,-0.0,0.3,-0.2
18.529,0.0,0.3,-0.3
18.625,-0.1,0.2,-0.2
18.627,-0.1,0.2,-0.2
18.628,-0.0,0.2,-0.1
18.63,-0.0,0.2,-0.1
18.725,-0.0,0.2,-0.1
18.727,0.1,0.2,-0.1
18.728,0.1,0.3,-0.0
18.73,0.1,0.4,-0.0
18.841,0.0,0.4,-0.0
18.874,0.4,0.5,0.0
18.877,0.2,0.2,0.0
18.879,0.5,0.3,0.1
18.952,0.1,0.2,0.2
18.953,-0.5,0.0,0.1
18.955,-0.5,0.1,0.2
18.956,0.0,-0.0,0.3
19.025,0.3,-0.2,0.2
19.028,0.5,-0.3,0.2
19.03,0.4,-0.3,0.3
19.032,0.0,-0.3,0.3
19.123,-0.2,-0.4,0.1
19.125,-0.2,-0.4,0.1
19.126,-0.6,-0.5,0.2
19.128,-0.9,-0.7,0.2
19.242,-1.1,-0.7,-0.0
19.244,0.3,-0.5,0.4
19.245,1.3,-0.5,0.9
19.247,0.7,-0.5,-0.1
19.32,1.0,0.0,-0.3
19.322,-0.9,-0.7,-1.3
19.326,1.2,1.0,0.7
19.329,0.1,0.5,0.4
19.42,0.2,0.5,0.7
19.422,0.2,0.5,0.7
19.424,0.3,0.5,0.8
19.427,0.3,0.7,0.8
19.539,0.1,0.6,0.6
19.54,0.3,0.6,0.5
19.542,0.3,0.5,0.5
19.544,0.1,0.3,0.4
19.623,0.1,0.1,0.3
19.625,-0.1,-0.1,0.1
19.626,-0.0,-0.0,0.2
19.631,-0.2,-0.1,0.1
19.724,0.1,0.0,0.1
19.727,-0.0,0.0,0.0
19.73,0.1,0.1,0.1
19.732,0.1,0.2,0.0
19.825,0.4,0.2,-0.1
19.827,0.4,0.2,-0.2
19.828,0.3,0.1,-0.3
19.83,0.2,0.1,-0.3
19.928,0.1,0.0,-0.4
19.93,0.0,0.0,-0.4
19.932,-0.1,-0.0,-0.5
20.021,-0.1,-0.0,-0.5
20.025,-0.2,-0.1,-0.5
20.026,0.0,-0.1,-0.5
20.028,-0.1,-0.1,-0.4
20.124,-0.3,-0.0,-0.4
20.128,-0.2,0.1,-0.4
20.133,0.3,0.0,-0.6
20.134,0.6,-0.1,-0.3
20.218,-1.8,-0.1,-0.3
20.221,-0.6,-0.3,-1.2
20.223,0.1,-0.2,-1.2
20.224,0.2,-0.3,-1.4
20.331,-0.0,-0.2,-1.3
20.334,0.0,-0.5,-0.8
20.335,0.5,-0.6,-0.6
20.348,-0.0,-0.5,-0.3
20.421,-0.8,-0.6,-0.2
20.424,-0.6,-0.6,0.1
20.426,-1.1,-0.4,0.1
20.428,-1.5,-0.5,0.1
20.525,-0.7,-0.5,0.3
20.528,-0.5,-0.3,0.3
20.53,-0.7,-0.2,0.4
20.531,-0.9,-0.2,0.1
20.621,-0.6,-0.1,0.2
20.632,0.4,-0.1,0.4
20.633,0.4,0.0,0.3
20.635,0.3,0.1,0.5
20.726,0.3,0.2,0.6
20.741,1.0,0.1,0.2
20.753,1.2,0.1,0.3
20.754,0.9,0.1,0.3
20.816,1.1,0.3,0.3
20.819,-0.0,-0.3,-1.1
20.821,0.0,0.2,-0.3
20.822,0.7,0.4,0.1
20.923,0.2,0.0,-0.1
20.926,0.4,-0.2,0.0
20.928,0.3,-0.2,0.1
20.929,0.1,-0.3,0.1
21.022,-0.0,-0.3,0.2
21.025,0.1,-0.3,0.5
21.027,0.1,-0.1,0.5
21.029,0.0,0.1,0.5
21.134,0.0,0.2,0.4
21.15,-0.1,0.3,0.5
21.152,-0.0,0.5,0.8
21.153,-0.1,0.5,0.9
21.221,-0.0,0.6,0.8
21.224,0.3,0.7,0.6
21.226,0.3,0.6,0.5
21.231,0.4,0.5,0.5
21.318,0.2,0.4,0.5
21.322,-0.0,0.2,0.5
21.324,-0.0,0.1,0.5
21.325,-0.1,-0.0,0.5
21.418,-0.2,-0.0,0.4
21.421,-0.2,0.0,0.4
21.422,-0.2,0.0,0.4
21.431,0.0,-0.0,0.2
21.531,0.1,-0.0,0.2
21.543,-0.9,-0.1,-0.0
21.546,-1.3,-0.8,-0.2
21.548,-0.2,-0.3,-0.0
21.619,-1.2,-0.6,-0.6
21.623,0.0,-0.3,-0.7
21.629,0.2,-0.3,-0.8
21.721,-0.0,-0.5,-0.9
21.723,-0.3,-0.3,-0.8
21.729,-0.2,-0.3,-0.8
21.731,-0.1,-0.2,-0.8
21.828,-0.4,-0.2,-0.7
21.83,-0.9,-0.1,-0.7
21.833,-0.4,0.1,-0.6
21.84,-0.1,-0.0,-0.7
21.919,-0.4,-0.1,-1.1
21.932,-0.2,0.2,-1.0
21.938,0.5,0.6,-0.9
21.94,0.9,-0.3,-0.9
22.03,-1.1,0.7,-1.0
22.031,0.3,0.1,-1.3
22.034,-0.2,0.4,-0.3
22.036,-0.1,0.5,-0.1
22.122,-0.3,0.1,-0.0
22.124,-0.5,-0.1,-0.0
22.127,-0.3,-0.2,0.2
22.129,-0.1,-0.1,0.2
22.235,0.0,-0.0,0.3
22.237,0.1,0.1,0.2
22.24,0.2,0.1,0.1
22.248,0.1,0.1,0.1
22.321,0.1,0.0,0.1
22.322,0.2,-0.0,0.1
22.328,-0.2,-0.4,0.2
22.333,-0.3,-0.5,0.3
22.415,-0.3,-0.6,0.5
22.416,-0.3,-0.9,0.6
22.423,-0.2,-0.7,0.7
22.425,-0.4,-0.7,0.6
22.527,-0.5,-0.7,0.7
22.528,-0.4,-0.6,0.8
22.532,-0.1,-0.6,0.9
22.533,-0.2,-0.7,0.9
22.629,-0.3,-0.7,0.8
22.63,-0.2,-0.8,0.9
22.643,-0.2,-0.7,1.2
22.653,-0.3,-0.8,1.2
22.721,-0.4,-0.8,1.2
22.723,-0.6,-0.9,1.4
22.733,-0.2,-0.9,1.4
22.734,-0.5,-0.8,1.3
22.822,-0.3,-0.8,1.3
22.824,0.5,-0.7,1.3
22.827,0.5,0.2,1.3
22.829,-0.2,0.5,1.0
22.917,-0.1,0.6,0.7
22.923,0.0,0.6,0.5
22.927,-1.4,0.3,0.6
22.928,-1.8,0.6,0.7
23.029,-1.7,0.7,0.7
23.032,-1.1,0.6,0.4
23.046,-1.0,-0.1,0.8
23.047,-0.8,0.4,0.7
23.121,-1.5,0.2,0.4
23.123,-2.3,0.1,0.5
23.126,-1.4,-0.7,0.8
23.128,0.5,-0.7,1.1
23.222,0.3,-0.7,0.7
23.223,-0.3,-0.7,0.8
23.227,-1.9,-0.6,0.6
23.317,-2.6,-0.3,0.7
23.319,-2.6,0.1,0.9
23.321,-1.9,-0.1,0.8
23.324,-1.5,-0.1,0.5
23.425,-1.4,-0.1,0.5
23.427,-1.1,0.1,0.5
23.429,-1.1,0.2,0.6
23.441,-1.7,0.1,0.8
23.522,-1.7,-0.3,0.4
23.523,-1.7,-0.2,0.6
23.529,-1.6,-0.2,0.8
23.537,-0.7,-0.1,0.7
23.617,-0.6,0.1,0.7
23.619,-0.5,0.1,0.6
23.621,-0.6,0.0,0.6
23.624,-1.2,0.0,-0.3
23.717,-0.9,0.1,-0.5
23.719,0.5,0.1,-0.9
23.725,-0.4,0.0,-1.2
23.728,0.2,0.1,-0.4
23.831,0.5,0.1,0.0
23.838,0.1,0.1,0.1
23.847,-0.3,-0.0,-0.0
23.851,-0.2,0.0,-0.1
23.917,-0.0,0.0,-0.1
23.92,0.1,0.1,-0.0
23.922,0.0,0.1,-0.1
23.925,-0.0,0.0,0.0
24.021,-0.0,0.1,-0.0
24.022,0.1,0.1,-0.1
24.024,0.0,0.1,-0.1
24.03,-0.1,0.0,-0.1
24.119,-0.1,0.1,-0.1
24.121,-0.1,0.1,-0.1
24.123,0.0,0.0,-0.1
24.127,0.2,-0.1,-0.1
24.226,0.2,-0.1,-0.2
24.235,0.2,-0.1,-0.2
24.237,0.2,-0.1,-0.1
24.25,0.3,-0.1,-0.1
24.325,0.2,-0.2,-0.2
24.326,0.1,-0.3,-0.2
24.328,0.1,-0.3,-0.1
24.337,-0.0,-0.4,-0.1
24.424,0.0,-0.3,-0.1
24.427,-0.0,-0.4,-0.1
24.429,0.1,-0.4,-0.0
24.433,-0.0,-0.5,0.1
24.531,-0.1,-0.4,0.1
24.533,0.0,-0.5,0.2
24.535,0.4,-0.3,0.4
24.543,-0.0,-0.1,0.5
24.622,-0.0,0.1,0.6
24.624,0.0,0.2,0.7
24.625,-0.0,0.2,0.7
24.628,0.2,0.3,0.7
24.717,-0.0,0.3,0.7
24.722,-0.1,0.3,0.7
24.724,-0.1,0.3,0.7
24.728,-0.1,0.3,0.5
24.823,0.1,0.2,0.4
24.825,0.2,0.1,0.3
24.826,-0.2,0.0,0.3
24.83,-0.2,-0.1,0.4
24.946,0.3,-0.4,0.2
24.947,-1.2,-0.3,0.2
24.954,-1.7,-0.3,0.0
25.02,0.3,-0.3,-0.4
25.025,1.3,0.0,-0.5
25.027,0.9,-0.2,-0.3
25.028,0.7,0.0,-0.3
25.118,0.3,0.2,-0.2
25.119,0.4,0.2,-0.3
25.121,0.5,0.2,-0.3
25.127,0.5,0.1,-0.2
25.217,0.0,0.0,-0.3
25.218,-0.2,-0.2,-0.5
25.224,0.1,-0.0,-0.5
25.226,0.5,-0.0,-0.5
25.331,0.0,-0.1,-0.5
25.34,0.2,-0.2,0.0
25.342,0.6,-0.4,-0.6
25.343,0.3,-0.4,-0.5
25.417,0.5,-0.3,-0.2
25.422,-0.9,-1.0,-3.5
25.424,-1.2,-0.3,-0.8
25.425,1.6,1.0,-0.3
25.521,-0.5,-0.1,-0.7
25.522,-0.1,0.1,-0.3
25.525,-0.3,-0.1,-0.2
25.526,-0.2,0.0,-0.0
25.616,-0.2,0.1,0.0
25.618,-0.0,0.1,0.0
25.62,0.1,0.2,0.1
25.622,0.0,0.2,-0.0
25.726,0.1,0.2,-0.0
25.728,0.0,0.1,-0.1
25.73,0.2,0.2,-0.0
25.749,0.3,0.1,-0.1
25.82,0.3,0.2,-0.1
25.821,0.3,-0.1,-0.6
25.823,-0.3,0.0,-0.2
25.825,-0.4,-0.0,-0.1
25.935,0.2,-0.1,0.3
25.937,-1.1,-0.2,0.3
25.938,-1.0,-0.2,0.2
25.94,-2.2,-0.5,0.1
26.021,-0.2,-0.5,0.3
26.023,0.2,-0.3,0.2
26.024,0.1,-0.2,0.2
26.026,0.0,-0.0,0.3
26.134,-0.0,0.2,0.6
26.138,-0.6,0.1,0.7
26.151,-0.3,-0.1,0.5
26.152,0.7,0.0,0.7
26.217,-1.0,-0.4,0.5
26.219,-1.1,-0.5,0.2
26.22,-0.1,-0.4,0.2
26.226,0.2,-0.3,0.3
26.32,1.0,-0.5,0.4
26.324,2.1,-0.3,0.8
26.326,2.4,-0.2,0.8
26.328,1.0,0.1,0.2
26.416,-0.8,0.0,-0.5
26.422,1.2,1.0,0.6
26.423,0.6,1.0,0.9
26.425,0.2,0.6,0.7
26.528,0.2,0.7,0.7
26.548,0.1,0.5,0.7
26.549,0.2,0.6,0.7
26.551,-0.1,0.4,0.6
26.625,0.1,0.4,0.4
26.626,-0.1,0.3,0.2
26.628,0.2,0.3,0.2
26.63,0.1,0.2,0.1
26.718,0.1,0.1,-0.1
26.719,0.0,0.2,-0.2
26.721,0.1,-0.0,-0.2
26.722,-0.1,0.0,-0.3
26.826,0.0,-0.1,-0.2
26.833,-0.1,-0.1,-0.2
26.835,-0.1,-0.2,-0.3
26.837,-0.1,-0.3,-0.2
26.946,-0.1,-0.3,-0.2
26.948,-0.1,-0.4,-0.2
26.95,-0.2,-0.4,-0.3
26.951,-0.1,-0.4,-0.2
27.023,-0.1,-0.4,-0.4
27.024,-0.1,-0.5,-0.4
27.029,-0.2,-0.4,-0.3
27.031,-0.3,-0.5,-0.4
27.118,-0.1,-0.4,-0.3
27.119,-0.1,-0.3,-0.2
27.121,-0.2,-0.3,-0.2
27.129,-0.1,-0.3,-0.1
27.229,-0.3,-0.2,0.1
27.23,-0.3,-0.2,0.2
27.232,-0.1,-0.2,0.2
27.241,-0.2,-0.1,0.3
27.323,-0.1,-0.1,0.4
27.325,-0.2,-0.0,0.5
27.326,-0.2,-0.0,0.5
27.328,-0.3,0.0,0.5
27.424,-0.4,0.1,0.4
27.429,-0.5,-0.1,0.4
27.431,-1.5,-0.3,0.2
27.433,-1.1,-0.8,0.4
27.522,-5.2,-0.9,-0.4
27.524,-3.8,-0.9,-0.5
27.526,-0.4,-0.7,-0.1
27.527,-0.7,-0.6,-0.9
27.634,-0.4,-0.5,0.0
27.636,-0.9,-0.4,0.0
27.639,-1.6,-0.6,0.2
27.65,-0.8,-0.6,0.6
27.721,-0.3,-0.2,1.0
27.723,2.5,-0.5,2.6
27.724,2.6,-0.5,1.1
27.726,1.6,-0.6,1.2
27.823,-0.5,-0.7,0.5
27.825,0.1,-0.7,0.3
27.826,0.3,-0.3,0.5
27.828,-0.5,-0.1,0.7
27.918,0.0,-0.3,0.7
27.92,-0.1,-0.5,0.8
27.921,-0.0,-0.6,1.0
27.923,0.2,-0.6,1.1
28.032,0.4,-0.7,1.6
28.038,0.7,-0.7,1.7
28.05,0.3,-0.7,1.8
28.051,0.0,-0.7,1.8
28.121,-0.2,-0.4,1.6
28.123,-0.1,-0.2,1.4
28.125,0.0,-0.0,1.2
28.127,-0.0,0.1,1.0
28.228,0.4,0.4,0.9
28.23,0.4,0.4,0.8
28.231,0.0,0.2,0.8
28.321,-0.1,0.1,0.7
28.324,-0.1,0.0,0.7
28.326,-0.1,0.0,0.7
28.327,-0.4,-0.2,0.7
28.435,-0.4,-0.3,0.6
28.438,-0.3,-0.3,0.5
28.451,-0.4,-0.3,0.6
28.452,-0.7,-0.4,0.6
28.516,-1.1,-0.4,0.8
28.519,-2.2,-1.1,0.9
28.527,-1.6,-1.2,1.2
28.529,-1.8,-1.4,0.7
28.616,-1.0,-1.2,1.4
28.619,-2.0,-1.2,1.0
28.626,-1.8,-1.0,0.9
28.628,-1.7,-0.8,0.8
28.716,-1.5,-0.7,0.9
28.724,-1.7,-0.4,1.0
28.725,-1.8,-0.4,0.9
28.727,-2.3,-0.5,0.9
28.836,-2.9,-0.6,0.8
28.848,-3.6,-0.8,0.5
28.85,-3.1,-0.7,0.3
28.852,-2.5,-0.7,0.2
28.92,-1.9,-0.6,-0.0
28.923,-1.7,-0.6,0.0
28.925,-1.2,-0.5,0.2
28.926,-1.2,-0.4,0.1
29.019,-1.1,-0.4,0.2
29.022,1.0,-0.0,0.6
29.024,1.3,0.0,0.6
29.025,1.5,0.5,1.5
29.12,0.9,0.4,0.4
29.123,0.4,-0.0,0.2
29.125,0.7,0.5,0.4
29.13,0.6,0.4,0.5
29.228,0.5,0.3,0.5
29.242,0.1,0.1,0.6
29.243,0.2,0.1,0.7
29.245,0.2,0.2,0.8
29.319,0.1,0.2,0.9
29.322,-0.0,0.2,1.0
29.328,-0.0,0.2,1.0
29.331,0.2,0.3,1.0
29.416,0.3,0.3,1.0
29.42,0.5,0.3,1.2
29.421,0.6,0.6,1.4
29.423,0.3,0.5,1.5
29.532,0.4,0.6,1.5
29.536,0.6,0.7,1.2
29.538,0.5,0.6,1.1
29.54,0.5,0.6,1.0
29.623,0.3,0.4,0.9
29.627,0.2,0.6,0.9
29.628,0.0,0.4,0.9
29.63,-0.1,0.5,0.9
29.721,-0.1,0.5,0.7
29.724,-0.2,0.4,0.8
29.726,-0.7,0.6,0.6
29.727,-1.0,0.4,0.6
29.82,-0.7,0.2,0.3
29.826,-0.1,-0.3,0.5
29.828,0.1,-0.7,-0.1
29.933,0.9,-0.5,-0.2
29.935,-0.1,-0.6,-0.7
29.938,1.0,-0.1,-1.0
29.94,1.2,0.1,-1.2
30.019,1.1,0.3,-1.2
30.021,1.0,0.5,-1.3
30.024,1.3,0.7,-1.3
30.026,1.6,0.6,-1.1
30.117,1.2,0.6,-1.3
30.119,1.4,0.6,-1.2
30.122,1.3,0.8,-1.0
30.124,1.0,1.0,-0.9
30.22,0.6,1.0,-0.9
30.222,0.5,0.9,-0.8
30.225,0.2,1.3,-0.7
30.227,-0.6,1.2,-0.7
30.332,-1.1,1.1,-0.5
30.335,-1.2,1.3,-0.4
30.344,-1.0,1.2,-0.7
30.356,0.2,1.0,-0.6
30.419,2.3,0.3,-0.0
30.421,0.5,0.1,-1.1
30.431,-0.0,0.4,-1.8
30.433,-0.7,-1.1,-2.3
30.519,-0.7,-0.6,-1.7
30.521,0.4,0.9,-0.8
30.527,-0.7,-0.5,-1.2
30.529,-0.3,-0.2,-0.7
30.616,-0.3,-0.5,-0.6
30.617,-0.3,-0.6,-0.4
30.62,0.0,-0.4,-0.1
30.626,0.2,-0.3,0.0
30.726,0.0,-0.1,0.1
30.728,0.1,0.1,0.0
30.742,-0.0,0.5,0.0
30.744,-0.1,0.5,-0.0
30.822,-0.1,0.6,0.0
30.824,-0.3,0.6,-0.0
30.827,-0.3,0.6,-0.0
30.828,-0.5,0.4,-0.1
30.919,-0.7,0.3,-0.1
30.927,-0.8,0.1,0.1
30.931,0.8,-0.3,-0.2
30.932,-0.1,-0.4,0.2
31.019,-1.7,-1.2,-1.3
31.021,0.7,-0.6,-0.6
31.026,1.2,-0.7,-0.5
31.028,0.7,-0.6,-0.2
31.134,0.5,-0.5,-0.1
31.136,0.7,-0.4,-0.1
31.153,-0.6,-0.3,0.2
31.159,-0.9,-0.3,0.2
31.222,-0.4,-0.2,0.1
31.224,0.1,0.1,0.4
31.227,-0.0,-0.4,0.2
31.229,-0.5,-0.7,-0.2
31.32,0.8,-0.5,-0.1
31.322,1.1,-0.4,-0.2
31.325,0.9,-0.2,0.1
31.326,0.5,-0.2,-0.0
31.416,0.1,-0.0,0.2
31.423,-0.3,0.1,0.4
31.426,-0.8,0.3,0.7
31.427,-0.9,0.6,0.6
31.533,-0.8,0.7,0.7
31.545,-0.8,0.6,0.8
31.549,-1.1,0.5,1.0
31.619,-0.7,0.4,1.2
31.62,0.3,0.6,1.5
31.625,2.8,0.6,3.7
31.628,0.8,0.2,-1.0
31.717,-2.2,0.0,-0.9
31.72,2.3,1.1,0.0
31.722,1.0,0.8,0.1
31.729,-0.1,0.1,-0.1
31.829,0.3,0.3,-0.1
31.83,-0.0,0.2,-0.3
31.847,0.3,0.3,-0.3
31.851,0.4,0.0,-0.3
31.919,0.3,-0.1,-0.3
31.934,0.3,-0.2,-0.4
31.936,0.2,-0.2,-0.4
31.94,0.1,-0.2,-0.4
32.017,0.1,-0.2,-0.4
32.019,-0.0,-0.3,-0.4
32.025,-0.1,-0.2,-0.4
32.029,-0.2,-0.4,-0.3
32.124,-0.1,-0.3,-0.3
32.125,-0.2,-0.4,-0.4
32.127,-0.3,-0.4,-0.4
32.13,-0.3,-0.5,-0.3
32.231,-0.3,-0.5,-0.3
32.233,-0.3,-0.4,-0.3
32.235,-0.3,-0.4,-0.3
32.239,-0.2,-0.4,-0.3
32.316,-0.1,-0.4,-0.3
32.318,-0.1,-0.3,-0.2
32.319,-0.2,-0.2,-0.2
32.323,-0.2,-0.2,-0.0
32.42,-0.2,-0.3,-0.0
32.422,-0.2,-0.2,-0.0
32.424,-0.2,-0.1,-0.0
32.427,-0.2,-0.1,-0.3
32.519,-0.0,0.0,-0.1
32.521,-0.0,0.2,-0.2
32.523,-0.0,-0.1,-0.2
32.527,0.1,0.0,-0.2
32.626,-0.1,0.3,-0.1
32.628,-0.3,0.1,-0.0
32.637,-1.0,-0.0,0.1
32.65,-0.4,-0.1,0.1
32.719,-0.3,0.1,0.3
32.721,-0.5,0.1,0.4
32.723,0.1,-0.1,0.3
32.726,-0.1,0.0,0.5
32.818,-0.1,0.1,0.6
32.82,-0.1,0.0,0.7
32.823,-0.3,0.0,0.7
32.828,-0.2,0.1,0.9
32.915,-0.9,-0.2,0.9
32.917,-0.7,-0.7,0.0
32.923,0.4,-0.3,0.2
32.926,-0.0,-0.7,0.2
33.026,-0.2,-0.7,0.6
33.029,-0.4,-0.6,0.7
33.031,0.1,-0.5,0.7
33.052,0.9,-0.3,1.3
33.118,0.8,-0.2,1.8
33.12,-0.5,0.1,1.1
33.121,-0.2,0.1,0.7
33.214,-0.3,0.4,0.8
33.216,0.5,0.8,1.1
33.218,0.6,1.1,1.4
33.219,0.5,0.9,1.4
33.314,0.3,1.2,2.0
33.316,0.2,0.8,2.1
33.322,0.1,0.7,2.0
33.323,-0.1,0.3,1.8
33.433,-0.1,-0.2,1.2
33.434,-0.3,-0.4,1.2
33.436,-0.6,-0.3,1.2
33.447,-0.7,-0.4,1.2
33.521,-0.5,-0.6,1.3
33.523,-0.4,-0.7,1.2
33.525,-0.7,-0.7,1.2
33.527,-1.0,-0.7,1.0
33.621,-0.4,-1.2,0.8
33.623,-0.4,-1.1,0.9
33.625,-0.3,-1.2,0.8
33.626,-0.3,-1.5,0.8
33.715,-0.5,-1.5,0.8
33.716,-0.5,-1.7,0.6
33.718,-0.4,-1.6,0.7
33.72,-0.2,-1.6,0.6
33.835,-0.7,-1.5,0.7
33.836,-2.6,-1.9,1.3
33.847,-4.3,-2.6,1.0
33.849,-5.5,-2.9,-0.3
33.92,-7.1,-2.7,-0.8
33.922,-8.5,-2.3,-0.9
33.924,-9.8,-2.1,-1.5
33.925,-10.2,-1.8,-1.9
34.013,-8.6,-0.6,-1.5
34.014,-6.6,-0.4,-1.4
34.021,-4.2,-0.3,-1.1
34.023,-2.2,-0.3,-0.7
34.123,-1.7,-0.4,-0.4
34.125,-1.6,-0.5,-0.3
34.127,-1.1,-0.6,-0.2
34.128,-0.5,-0.7,-0.1
34.239,-0.3,-1.1,0.2
34.25,-0.4,-1.4,0.3
34.252,-0.2,-1.6,0.4
34.253,0.0,-1.7,0.6
34.319,-0.6,-2.0,0.9
34.321,-0.6,-2.1,1.0
34.322,-0.5,-2.3,1.2
34.324,-0.9,-2.3,1.2
34.39,-1.3,-2.4,1.1
34.391,-0.8,-2.3,1.0
34.393,-0.5,-2.1,0.9
34.395,-0.7,-2.0,0.8
34.512,-0.5,-1.9,0.7
34.514,-0.4,-1.7,0.5
34.519,-0.4,-1.6,0.4
34.631,-0.4,-1.5,0.3
34.644,-0.2,-1.2,0.2
34.645,-0.1,-1.2,0.2
34.657,-0.1,-1.1,0.3
34.658,-0.0,-1.1,0.3
34.723,-0.1,-1.0,0.3
34.725,-0.1,-1.0,0.3
34.727,-0.1,-1.0,0.3
34.728,-0.2,-1.0,0.2
34.815,-0.0,-0.8,0.2
34.816,0.0,-0.7,0.2
34.818,0.1,-0.6,0.2
34.819,0.0,-0.5,0.1
34.929,1.1,-0.2,-0.2
34.93,3.6,-0.0,-0.3
34.932,7.6,0.3,-0.4
34.954,12.3,0.1,-0.5
35.016,14.6,0.2,-0.5
35.018,10.0,0.3,-0.9
35.026,4.3,-0.3,-0.9
35.027,2.1,-0.6,-1.1
35.116,1.8,-0.6,-1.5
35.118,2.0,-0.5,-1.5
35.119,1.9,-0.4,-1.4
35.121,1.6,-0.4,-1.3
35.216,1.6,-0.4,-1.2
35.238,1.4,-0.3,-1.1
35.24,1.3,-0.3,-1.0
35.241,1.2,-0.3,-0.9
35.356,1.0,-0.3,-0.7
35.358,0.9,-0.3,-0.6
35.36,1.7,-0.5,-1.7
35.37,1.1,-0.8,-0.9
35.42,1.0,-0.2,-0.3
35.421,1.0,-0.2,0.1
35.423,0.8,-0.2,0.2
35.428,0.8,-0.2,0.3
35.521,0.5,-0.1,0.6
35.526,0.9,-0.0,0.5
35.527,0.6,-0.2,0.4
35.529,0.4,-0.3,0.4
35.597,0.4,-0.2,0.2
35.598,0.4,-0.1,0.1
35.6,0.2,-0.0,0.2
35.601,0.2,-0.0,0.2
35.729,0.4,-0.0,0.3
35.731,0.3,-0.0,0.2
35.743,0.2,-0.1,0.2
35.821,0.3,-0.1,0.2
35.826,-0.0,-0.2,0.0
35.827,-0.0,-0.3,-0.0
35.832,0.1,-0.3,0.0
35.834,0.0,-0.3,-0.0
35.893,-0.2,-0.3,-0.1
35.894,-0.3,-0.3,-0.1
35.896,-0.2,-0.3,-0.0
35.898,-0.2,-0.3,-0.1
