vertical_Accel_x,vertical_Accel_y,vertical_Accel_z,accel_time_list
1.373,8.861,5.906,0.0
1.053,8.378,4.988,0.001
1.251,8.159,5.796,0.003
1.214,8.029,5.943,0.005
1.376,8.28,5.798,0.006
0.808,7.873,5.567,0.122
1.771,8.543,5.314,0.127
1.094,8.245,5.424,0.129
0.949,8.141,5.704,0.131
0.853,8.578,5.388,0.226
1.159,8.433,5.063,0.228
1.098,8.082,5.008,0.229
1.371,8.043,5.314,0.231
1.243,8.086,5.729,0.237
1.135,8.112,5.861,0.239
1.165,8.088,5.439,0.325
1.178,7.998,5.09,0.327
1.098,8.082,5.008,0.332
0.961,8.051,5.355,0.334
0.837,7.931,5.353,0.346
0.929,7.757,5.086,0.437
0.796,7.563,5.016,0.439
0.463,7.169,4.447,0.441
0.486,7.071,3.957,0.442
0.616,7.047,2.335,0.444
-5.3,9.458,-1.97,0.525
-1.0,2.493,3.059,0.526
-2.3,2.48,4.64,0.531
-1.9,3.62,5.16,0.533
-1.7,2.5,5.0,0.534
0.6,-1.86,6.48,0.624
1.244,-3.722,7.556,0.626
1.211,-3.676,8.549,0.628
0.9,-4.1,8.8,0.634
0.967,-4.753,8.893,0.635
4.772,-7.254,7.631,0.725
4.448,-6.794,8.061,0.727
2.861,-5.842,8.176,0.729
2.475,-5.866,7.91,0.746
4.726,-8.166,5.983,0.748
5.212,-10.382,4.488,0.825
4.814,-10.496,5.12,0.838
3.5,-9.7,5.1,0.84
3.752,-9.134,5.212,0.842
2.773,-10.098,3.187,0.847
3.043,-10.505,1.808,0.924
2.601,-10.738,0.953,0.926
3.633,-10.78,-0.045,0.932
3.433,-11.527,-0.557,0.934
2.631,-11.953,-2.907,0.935
3.592,-11.786,-2.946,1.024
3.313,-11.598,-2.449,1.026
3.069,-11.22,-2.005,1.028
3.074,-11.004,-1.601,1.029
3.178,-11.011,-1.178,1.031
2.258,-10.526,-2.106,1.124
2.053,-10.175,-1.502,1.126
1.842,-9.974,-1.194,1.136
1.774,-9.862,-1.249,1.138
1.768,-9.611,-1.645,1.139
2.062,-9.56,-1.542,1.226
2.126,-9.338,-1.351,1.229
2.895,-9.316,0.196,1.234
3.081,-9.441,-0.135,1.235
3.452,-9.315,-0.579,1.349
3.417,-9.505,-0.526,1.351
3.284,-9.572,-0.093,1.352
3.098,-9.446,0.238,1.354
2.843,-9.601,0.275,1.355
2.705,-9.884,0.304,1.427
2.688,-9.979,0.33,1.434
2.589,-9.756,0.311,1.436
2.473,-9.627,0.318,1.438
2.461,-9.406,0.348,1.44
2.64,-9.471,0.232,1.441
2.6,-9.5,0.1,1.443
0.336,-9.925,1.348,1.522
0.374,-9.977,1.271,1.523
0.29,-9.962,1.219,1.525
0.259,-9.956,1.462,1.624
0.266,-10.003,1.629,1.629
0.266,-10.003,1.629,1.631
0.306,-9.783,1.629,1.632
0.423,-9.531,1.514,1.634
0.84,-8.9,2.88,1.724
0.76,-8.9,2.82,1.726
0.76,-8.9,2.82,1.727
0.98,-9.1,2.86,1.729
0.924,-9.38,2.768,1.734
1.216,-9.42,2.712,1.824
1.184,-8.98,2.588,1.826
1.028,-8.96,2.296,1.827
1.184,-8.78,2.088,1.829
1.404,-8.98,2.128,1.831
1.508,-9.26,2.156,1.926
1.432,-9.44,2.424,1.937
1.484,-9.68,2.688,1.938
1.524,-9.78,2.968,1.94
1.5,-9.5,3.0,1.942
1.645,-8.501,4.59,2.024
1.672,-8.206,4.638,2.026
1.872,-8.106,4.538,2.027
1.839,-8.269,4.309,2.029
1.765,-8.286,4.244,2.031
1.708,-8.309,4.007,2.123
1.542,-8.335,4.049,2.125
1.352,-8.133,4.37,2.127
0.1,-7.88,5.34,2.133
0.211,-7.924,5.529,2.134
0.089,-7.856,5.511,2.228
-0.244,-7.842,5.604,2.23
-0.289,-7.624,5.629,2.232
-0.244,-7.562,5.564,2.233
-0.456,-7.758,5.696,2.235
-0.667,-7.673,5.787,2.324
-1.134,-8.128,4.26,2.326
-1.38,-8.102,4.089,2.327
-1.637,-8.217,3.914,2.329
-2.032,-9.039,4.006,2.33
-2.599,-10.005,4.673,2.427
-3.118,-10.409,5.357,2.432
-2.149,-10.11,6.816,2.434
-1.88,-10.296,6.014,2.435
-1.676,-10.535,5.576,2.437
-2.68,-10.861,5.015,2.524
-3.193,-10.087,5.838,2.526
-3.192,-9.483,5.564,2.527
-3.193,-8.687,4.838,2.529
-3.829,-8.158,4.759,2.53
-2.778,-8.735,4.67,2.624
-3.1,-8.1,5.4,2.625
-2.717,-7.752,5.704,2.627
-3.009,-8.326,4.952,2.629
-2.657,-8.07,4.939,2.639
-1.291,-7.248,6.786,2.724
-1.261,-7.367,6.495,2.725
-1.736,-8.216,5.867,2.727
-1.285,-8.413,5.411,2.729
-0.596,-8.177,6.45,2.73
-0.189,-9.264,4.979,2.823
0.9,-9.531,3.646,2.825
0.8,-9.077,4.215,2.826
0.5,-8.885,4.677,2.828
0.7,-8.462,4.392,2.926
0.8,-8.592,4.338,2.927
0.7,-8.231,4.946,2.929
-0.1,-7.638,6.108,2.931
-0.6,-7.362,5.992,2.932
0.813,-8.303,4.142,3.024
1.235,-8.584,4.09,3.025
1.662,-8.499,5.186,3.033
1.559,-7.973,5.551,3.035
0.497,-8.674,3.765,3.044
0.918,-8.146,2.601,3.124
2.166,-8.025,3.822,3.125
2.973,-8.785,4.104,3.127
3.343,-8.644,3.073,3.129
3.986,-8.488,2.646,3.13
7.113,-8.169,0.682,3.226
6.913,-9.069,0.082,3.228
5.54,-8.558,1.938,3.229
5.621,-8.283,2.025,3.231
5.266,-7.864,0.796,3.237
4.277,-8.109,-0.036,3.324
3.532,-10.428,0.992,3.325
2.447,-10.878,0.72,3.327
2.322,-11.472,-0.763,3.329
1.509,-13.469,-1.405,3.33
-0.6,-16.5,0.7,3.424
-0.4,-16.669,1.854,3.425
0.5,-14.023,2.485,3.427
-0.4,-13.977,1.815,3.442
-0.9,-14.931,1.346,3.444
-3.179,-14.017,1.075,3.527
-2.971,-13.411,1.464,3.529
-2.816,-12.956,1.042,3.53
-2.711,-12.811,0.644,3.532
-2.607,-12.467,0.747,3.534
-4.41,-11.563,-0.145,3.624
-4.186,-11.071,-0.057,3.625
-4.106,-10.398,-0.047,3.628
-3.931,-9.69,-0.135,3.629
-3.439,-9.02,-0.131,3.634
-2.945,-8.718,-0.218,3.723
-2.773,-8.609,-0.309,3.725
-2.491,-8.836,0.064,3.726
-1.682,-9.673,0.927,3.728
-1.682,-10.173,1.427,3.729
-3.172,-9.795,2.484,3.824
-3.664,-9.852,2.758,3.825
-4.356,-10.248,2.602,3.835
-5.236,-9.448,2.942,3.836
-5.463,-8.814,3.689,3.838
-3.972,-9.195,4.384,3.926
-2.562,-10.176,4.519,3.927
-1.687,-9.567,4.027,3.929
-2.03,-8.619,3.025,3.937
-2.118,-8.624,2.721,3.939
-1.091,-8.767,4.371,4.023
-2.182,-8.475,5.322,4.025
-1.874,-9.403,5.665,4.027
-1.408,-10.137,5.131,4.028
0.123,-10.79,6.506,4.03
1.998,-10.272,6.224,4.123
0.058,-10.192,5.724,4.125
-0.579,-10.304,4.038,4.127
0.052,-10.01,3.495,4.128
-0.178,-10.968,3.776,4.13
0.338,-12.165,1.127,4.223
0.314,-11.395,0.28,4.233
0.17,-11.146,-0.624,4.235
-0.388,-10.667,-0.845,4.236
-0.298,-9.828,-0.474,4.238
-0.218,-9.362,-2.64,4.323
0.11,-9.726,-1.961,4.325
-0.337,-9.825,-1.18,4.327
-0.703,-8.958,-1.113,4.328
-0.997,-8.542,-1.087,4.332
0.055,-8.951,-0.455,4.423
0.724,-9.765,-1.224,4.425
0.782,-9.976,-1.182,4.431
-0.671,-8.953,-1.327,4.433
-0.33,-8.273,-0.914,4.435
0.4,-8.7,-2.6,4.524
2.435,-9.424,-3.124,4.527
1.959,-9.306,-2.006,4.528
0.959,-9.206,-1.906,4.53
0.104,-9.48,-3.78,4.623
0.5,-10.8,-4.6,4.648
1.343,-12.584,-3.784,4.65
1.447,-12.065,-2.265,4.651
0.725,-9.673,-2.073,4.653
1.564,-7.763,-2.026,4.727
1.646,-7.338,-2.685,4.729
0.731,-11.092,-3.623,4.731
-0.069,-12.092,-2.423,4.732
0.568,-10.324,-1.943,4.736
0.116,-9.322,-4.278,4.823
0.886,-9.269,-4.431,4.825
0.324,-10.782,-4.718,4.827
-0.647,-13.235,-4.965,4.828
-0.533,-13.267,-4.533,4.83
-1.209,-13.289,1.796,4.923
-1.056,-13.056,2.222,4.925
-0.649,-12.789,2.376,4.927
-0.396,-12.556,2.602,4.929
-0.344,-12.244,2.578,4.93
-0.84,-11.1,4.62,5.027
-0.828,-10.54,4.104,5.029
-0.972,-9.66,3.796,5.031
-0.984,-8.82,3.312,5.032
-0.916,-7.98,2.888,5.034
-2.036,-7.211,1.976,5.123
-1.674,-6.617,2.756,5.125
-1.798,-6.487,2.59,5.126
-1.642,-6.194,2.581,5.128
-1.107,-6.446,2.586,5.13
-0.962,-6.932,2.639,5.229
-1.085,-6.795,2.718,5.23
-0.906,-7.739,4.131,5.232
-1.443,-9.301,5.236,5.234
-2.94,-9.381,5.571,5.235
-5.824,-8.86,6.368,5.323
-5.972,-8.18,6.604,5.324
-5.428,-8.52,6.696,5.33
-4.328,-9.72,7.496,5.332
-3.12,-9.4,7.84,5.341
-0.381,-10.477,4.248,5.424
-0.739,-10.145,3.103,5.426
-0.778,-9.853,3.454,5.428
-1.11,-9.661,4.626,5.429
-0.97,-9.754,5.175,5.431
0.74,-9.5,6.18,5.523
0.276,-9.52,6.632,5.53
0.144,-9.78,6.308,5.532
0.092,-10.34,5.544,5.534
0.336,-11.12,5.052,5.535
2.407,-11.517,2.816,5.623
2.587,-11.025,2.941,5.634
2.24,-10.484,2.749,5.636
1.281,-10.275,0.513,5.638
1.136,-9.557,0.285,5.639
-0.329,-8.732,1.86,5.723
-0.724,-8.006,2.242,5.725
-1.006,-7.752,1.861,5.727
-1.032,-7.708,1.49,5.736
-0.915,-7.679,2.052,5.738
0.888,-8.048,2.413,5.823
0.43,-8.241,2.009,5.828
0.26,-8.682,1.819,5.83
0.804,-8.551,2.129,5.831
1.232,-8.416,2.224,5.833
1.657,-8.12,1.997,5.923
2.161,-7.97,1.726,5.925
2.542,-8.193,1.796,5.926
2.741,-8.505,2.289,5.928
2.585,-9.186,2.692,5.93
2.868,-10.084,2.576,6.023
3.022,-10.34,2.352,6.026
3.344,-10.568,3.01,6.027
3.699,-11.012,3.093,6.029
3.811,-10.564,2.479,6.03
3.327,-9.878,1.588,6.123
2.595,-10.462,0.864,6.125
1.908,-11.101,0.858,6.134
1.791,-10.411,0.835,6.136
1.536,-9.567,0.053,6.137
1.712,-10.03,1.749,6.229
1.316,-11.507,1.798,6.23
2.367,-12.469,4.894,6.232
2.278,-13.11,6.202,6.234
-0.663,-11.726,9.141,6.323
-0.619,-11.137,9.53,6.325
-0.393,-10.085,10.148,6.326
-0.459,-9.319,10.615,6.328
-0.433,-8.967,10.233,6.33
-3.564,-4.474,11.669,6.423
-3.226,-5.314,11.47,6.425
-2.852,-5.728,11.14,6.426
-2.936,-6.237,10.987,6.428
-3.392,-6.399,10.795,6.43
-5.641,-7.149,9.396,6.523
-5.422,-7.347,8.588,6.525
-5.308,-7.29,8.159,6.534
-5.38,-6.976,7.902,6.536
-5.49,-6.788,7.851,6.539
-6.974,-5.596,7.413,6.623
-7.013,-5.252,6.943,6.625
-6.878,-4.913,6.861,6.626
-7.104,-4.517,7.148,6.628
-6.709,-4.035,7.596,6.633
-6.622,-3.587,7.639,6.723
-5.984,-2.335,8.236,6.729
-4.537,-1.659,8.703,6.731
-3.605,-0.368,8.895,6.733
-3.8,1.26,8.32,6.735
-2.933,1.661,8.29,6.824
-3.567,0.957,7.839,6.825
-4.1,1.488,8.047,6.827
-4.233,2.061,10.09,6.831
-4.1,1.806,11.276,6.834
-0.973,3.951,11.429,6.923
-1.545,4.102,11.258,6.934
-1.909,3.896,11.184,6.942
-2.145,4.082,10.618,6.943
-2.409,4.196,10.784,6.945
0.923,3.608,11.431,7.022
1.292,3.231,11.323,7.024
1.377,3.092,11.169,7.025
1.272,0.729,11.13,7.027
1.002,0.434,10.769,7.029
1.05,0.042,10.833,7.123
1.007,-0.182,10.743,7.124
0.704,-0.333,10.039,7.126
0.926,-0.462,9.701,7.128
1.251,-0.525,9.702,7.129
3.777,-1.225,8.723,7.224
3.355,-2.036,9.045,7.225
3.17,-2.624,9.03,7.227
3.197,-2.442,8.903,7.233
3.084,-2.526,8.916,7.236
1.97,-0.992,9.195,7.327
2.305,-1.724,9.252,7.328
2.288,-2.058,10.324,7.33
1.761,-1.745,11.29,7.332
1.75,-1.968,11.305,7.333
0.483,-2.394,11.434,7.423
0.281,-2.355,12.338,7.43
-0.86,-1.428,12.619,7.431
-1.849,-0.619,12.198,7.433
-1.949,-0.919,12.498,7.448
-2.115,0.615,13.479,7.529
-2.637,0.771,14.434,7.531
-3.187,1.154,14.072,7.533
-2.887,0.654,13.972,7.534
-3.331,0.265,14.483,7.536
-5.264,0.06,13.552,7.623
-5.828,-0.48,13.004,7.631
-5.104,-0.54,12.172,7.633
-5.04,-1.0,11.72,7.635
-4.472,-1.22,10.896,7.648
-4.073,-2.464,9.442,7.724
-3.88,-2.36,9.093,7.727
-3.715,-2.493,8.801,7.732
-3.495,-2.152,8.393,7.734
-3.445,-1.778,7.703,7.736
-4.412,-1.053,6.378,7.822
-4.09,-1.122,5.802,7.823
-3.567,-1.092,5.327,7.825
-3.282,-0.92,5.084,7.827
-3.12,-0.455,5.396,7.923
-3.249,-0.312,6.21,7.924
-3.818,-0.28,7.416,7.926
-4.249,-0.112,8.51,7.928
-4.647,0.063,9.031,7.929
-5.576,0.706,9.545,8.023
-6.643,1.114,9.071,8.03
-8.131,1.767,8.194,8.033
-8.39,2.078,8.602,8.035
-7.755,1.961,10.049,8.045
-5.965,2.259,10.5,8.124
-6.431,2.425,10.733,8.126
-6.971,3.082,11.5,8.133
-7.18,3.122,10.967,8.134
-7.169,2.675,10.667,8.136
-4.453,3.675,11.589,8.222
-4.148,2.295,12.027,8.224
-3.81,2.701,11.155,8.226
-4.33,2.933,10.648,8.227
-4.774,3.747,10.213,8.229
-4.467,5.433,8.867,8.322
-4.4,5.0,8.1,8.324
-4.3,4.6,8.1,8.326
-4.233,3.467,8.433,8.327
-3.867,3.133,8.367,8.331
-2.143,2.314,8.871,8.437
-2.18,1.912,8.633,8.439
-1.892,1.545,8.453,8.442
-2.333,1.52,8.688,8.451
-3.259,0.424,8.665,8.453
-4.133,-0.733,8.533,8.522
-2.935,-0.351,8.254,8.524
-3.032,4.225,8.023,8.532
-3.56,7.443,8.096,8.534
-4.706,8.048,7.661,8.536
-3.409,10.827,2.291,8.622
-4.446,10.962,1.998,8.624
-4.976,10.594,3.158,8.629
-5.348,10.312,4.485,8.631
-4.899,10.675,4.357,8.637
-4.727,10.382,3.273,8.723
-4.363,9.366,3.393,8.725
-3.234,8.659,3.477,8.726
-2.741,8.735,2.381,8.732
-2.738,7.56,1.251,8.734
-2.219,6.58,1.625,8.822
-1.831,6.283,2.846,8.824
-1.654,6.538,3.802,8.847
-1.637,6.834,5.007,8.849
-1.152,6.388,5.915,8.85
-0.721,8.13,6.112,8.922
-0.818,7.555,5.782,8.924
-0.364,5.591,7.436,8.931
0.416,6.796,7.105,8.934
-0.834,8.659,7.677,8.935
-4.402,8.147,9.125,9.028
-2.747,7.779,9.713,9.03
-1.821,10.819,5.17,9.032
-1.421,12.319,5.17,9.033
-2.058,11.262,5.86,9.035
-2.002,12.818,-3.05,9.123
-1.456,13.708,-3.589,9.125
-1.67,13.033,-1.543,9.126
-4.707,12.167,-4.377,9.129
-4.908,12.1,-4.449,9.13
-6.8,11.535,-3.141,9.222
-6.667,11.149,-3.196,9.232
-6.7,10.218,-2.371,9.239
-6.267,9.273,-1.59,9.241
-6.056,7.765,-3.376,9.242
-6.885,6.43,-3.068,9.322
-7.162,5.977,-1.389,9.324
-6.73,6.34,-0.964,9.326
-7.247,7.306,-2.557,9.327
-7.896,7.509,-2.777,9.329
-9.092,6.223,-1.531,9.426
-9.169,5.892,-1.223,9.428
-8.469,6.192,-0.823,9.43
-7.454,6.638,-1.585,9.431
-7.915,5.911,-0.881,9.433
-7.402,6.586,0.502,9.521
-7.447,6.071,0.547,9.523
-7.341,5.612,-0.159,9.525
-7.502,4.986,-0.598,9.526
-7.288,4.582,-1.012,9.622
-6.945,4.684,-1.055,9.631
-6.89,4.869,-1.11,9.633
-6.704,5.173,-0.996,9.635
-6.8,5.3,-0.3,9.652
-4.844,6.556,3.678,9.747
-5.552,6.815,4.407,9.748
-6.259,6.874,5.537,9.75
-6.004,6.83,6.815,9.752
-5.796,6.77,7.585,9.753
-3.267,6.525,9.402,9.848
-3.3,6.676,8.906,9.85
-3.4,7.018,8.271,9.851
-3.233,7.11,7.239,9.853
-3.2,7.471,6.782,9.855
-3.826,6.609,7.87,9.858
-3.509,8.383,6.79,9.926
-3.459,8.274,7.295,9.928
-3.189,7.78,8.032,9.934
-2.85,7.391,8.706,9.936
-2.236,6.816,9.371,9.946
-2.299,6.882,9.411,9.947
-2.097,7.429,9.034,10.045
-2.151,7.486,8.583,10.046
-1.913,6.767,8.773,10.048
-1.948,7.424,8.462,10.149
-2.307,8.233,8.187,10.151
-2.234,7.957,7.789,10.153
-2.149,7.214,7.817,10.158
-2.28,6.5,8.54,10.16
-3.073,6.567,9.153,10.161
-3.877,6.829,8.574,10.247
-4.211,6.386,7.163,10.25
-4.609,5.214,6.597,10.252
-5.432,4.376,6.878,10.254
-7.052,6.796,5.283,10.262
-6.872,9.465,3.813,10.322
-6.171,9.638,3.617,10.324
-6.604,9.505,3.684,10.325
-7.716,10.12,4.435,10.342
-7.058,9.797,4.77,10.344
-6.909,10.404,0.565,10.445
-7.722,10.661,0.413,10.447
-8.335,10.917,1.361,10.448
-7.73,10.465,1.378,10.45
-9.233,9.104,-1.416,10.548
-8.733,8.933,-1.733,10.553
-8.5,8.724,-1.694,10.555
-8.3,8.412,-1.747,10.557
-7.867,8.025,-1.802,10.558
-7.5,7.559,-1.635,10.56
-7.942,6.642,-1.239,10.622
-7.783,6.549,-1.163,10.628
-7.884,6.717,-1.271,10.63
-7.699,7.232,-1.292,10.632
-6.762,7.336,-2.656,10.633
-6.715,7.35,-0.881,10.72
-7.216,6.772,-1.205,10.728
-7.393,6.747,-1.533,10.737
-7.444,7.608,-1.695,10.739
-5.961,7.888,-4.924,10.847
-5.733,6.77,-5.554,10.852
-5.222,5.977,-5.549,10.854
-4.578,6.823,-5.151,10.856
-3.912,7.483,-4.543,10.857
-4.166,7.14,-5.009,10.948
-4.658,7.917,-5.314,10.95
-4.446,8.544,-5.634,10.956
-4.121,7.786,-6.712,10.958
-4.454,7.756,-7.366,10.959
-2.876,7.865,-7.845,10.961
-2.4,9.62,-5.84,11.022
-3.02,9.928,-5.696,11.024
-3.26,9.964,-5.348,11.026
-3.22,10.388,-4.416,11.028
-2.82,10.708,-3.656,11.035
-3.27,11.311,-1.147,11.149
-3.538,11.215,-0.926,11.164
-3.598,10.494,-0.632,11.166
-3.372,9.917,-1.015,11.167
-1.409,9.795,-2.61,11.223
-1.496,9.747,-2.607,11.225
-1.213,9.249,-2.403,11.226
-1.367,8.896,-2.608,11.228
-1.541,8.811,-2.379,11.233
-1.933,8.704,-2.192,11.235
-2.476,8.586,-0.294,11.345
-2.799,8.691,-0.225,11.346
-3.11,8.889,0.048,11.348
-3.202,9.118,-0.15,11.423
-3.061,9.252,-0.565,11.425
-2.824,9.314,-0.706,11.428
-2.778,9.604,-0.645,11.429
-2.658,10.226,-0.74,11.431
-2.325,11.023,-0.681,11.437
-1.62,12.0,0.84,11.546
-1.538,12.544,1.376,11.556
-1.32,12.3,1.74,11.557
-1.102,11.956,1.104,11.568
-1.679,10.813,-0.82,11.648
-1.608,9.371,-0.902,11.65
-2.155,8.699,-0.414,11.655
-2.628,9.25,0.593,11.656
-3.545,10.601,0.914,11.658
-3.923,11.505,0.669,11.66
-2.604,12.398,-0.856,11.722
-2.536,12.582,-1.244,11.729
-2.302,12.949,-1.878,11.73
-2.304,12.798,-2.156,11.732
-3.393,12.082,-3.437,11.734
-3.766,11.508,-3.584,11.82
-5.48,10.252,-4.064,11.822
-5.36,9.784,-3.588,11.824
-5.42,9.508,-3.256,11.825
-5.36,9.164,-2.748,11.946
-5.3,8.88,-2.16,11.957
-5.06,8.684,-1.888,11.959
-4.62,8.228,-1.796,11.96
-4.54,7.756,-1.692,11.962
-5.228,6.618,-1.77,12.048
-5.219,6.006,-1.838,12.057
-5.169,5.711,-1.819,12.058
-4.945,5.553,-1.697,12.06
-4.628,5.418,-1.47,12.061
-4.489,5.407,-1.494,12.063
-4.424,6.016,-2.349,12.146
-4.861,6.841,-2.722,12.148
-5.455,7.537,-3.41,12.15
-6.216,8.778,-4.333,12.151
-6.708,9.439,-5.216,12.153
-5.329,9.563,-7.654,12.246
-5.395,8.956,-8.408,12.248
-4.952,8.342,-8.536,12.25
-4.248,7.918,-8.284,12.251
-3.714,7.371,-7.957,12.265
-1.429,8.582,-7.0,12.346
-1.455,9.314,-7.067,12.348
-1.598,8.975,-7.733,12.35
-1.6,8.9,-7.8,12.351
-1.427,8.657,-7.533,12.353
-1.631,9.744,-6.472,12.446
-1.644,9.98,-6.538,12.447
-0.9,10.4,-5.8,12.453
-1.255,10.049,-5.483,12.454
-1.272,9.626,-5.309,12.456
-2.351,9.583,-3.535,12.547
-2.548,9.329,-3.342,12.549
-3.46,9.578,-2.545,12.551
-3.912,9.46,-0.88,12.552
-3.28,9.145,-0.911,12.554
-3.181,8.931,0.23,12.647
-2.814,8.525,0.247,12.649
-2.567,8.306,0.283,12.65
-2.375,8.077,0.081,12.661
-2.53,8.067,0.243,12.663
-3.986,7.329,1.843,12.746
-3.657,7.386,1.529,12.748
-3.741,7.258,1.29,12.75
-3.967,7.267,1.533,12.751
-3.882,7.316,1.981,12.753
0.834,7.821,2.901,12.871
1.478,8.174,3.234,12.873
1.889,8.468,4.168,12.875
1.901,8.963,4.403,12.876
1.892,10.095,4.575,12.878
3.991,10.923,5.264,12.948
4.334,12.458,5.149,12.949
4.072,13.668,4.692,12.955
4.126,13.457,3.86,12.957
3.619,12.155,2.872,12.959
2.391,11.023,1.564,12.96
0.425,9.921,-2.317,13.046
-0.236,10.077,-0.991,13.058
-0.496,11.134,0.836,13.059
-1.43,12.428,1.213,13.061
-3.205,12.796,2.638,13.146
-2.052,12.591,1.374,13.148
-1.539,11.943,1.73,13.15
-1.652,11.891,1.574,13.152
-2.766,11.231,0.562,13.246
-3.393,11.44,0.68,13.252
-3.697,10.678,0.755,13.254
-3.288,9.503,0.606,13.256
-2.711,8.69,0.279,13.258
-2.329,8.401,0.468,13.347
-2.226,8.94,0.854,13.35
-2.098,8.993,0.824,13.352
-2.104,9.214,0.853,13.353
-1.909,8.982,0.943,13.355
-2.489,8.986,-0.432,13.446
-2.382,8.677,-0.487,13.448
-1.905,7.857,-0.584,13.458
-1.417,7.396,-0.682,13.46
-0.302,7.238,-0.496,13.467
-0.673,7.316,-0.781,13.551
-0.537,7.671,-1.056,13.552
-0.502,7.752,-1.261,13.554
-0.64,7.95,-1.548,13.556
-0.891,8.539,-1.894,13.557
-2.35,7.589,-3.845,13.648
-2.383,6.97,-4.185,13.651
-2.49,6.818,-4.309,13.652
-2.372,6.81,-4.805,13.654
-1.805,7.291,-5.646,13.656
0.015,8.495,-5.618,13.746
0.279,9.044,-5.713,13.748
0.264,9.755,-5.65,13.749
0.511,10.021,-5.738,13.751
0.942,10.406,-6.319,13.753
0.793,11.042,-6.427,13.847
0.987,11.498,-6.273,13.861
1.185,11.384,-6.055,13.863
1.465,11.924,-5.155,13.865
1.715,12.816,-3.445,13.866
3.767,11.807,-4.853,13.946
3.533,13.113,-4.207,13.948
3.767,13.387,-3.793,13.956
3.367,12.527,-4.813,13.957
1.654,12.511,-5.564,13.959
2.413,11.362,-7.783,14.045
2.402,11.466,-7.255,14.047
1.368,11.377,-6.37,14.049
1.547,11.651,-5.568,14.05
-0.122,9.655,-7.349,14.057
-1.207,6.611,-8.806,14.171
-1.063,6.556,-7.74,14.173
-0.829,5.903,-7.411,14.174
-0.595,5.25,-7.082,14.18
0.182,4.872,-6.53,14.182
1.598,1.792,-7.733,14.25
1.984,1.737,-7.567,14.252
2.237,1.149,-6.967,14.254
3.01,1.039,-7.233,14.259
3.81,0.839,-6.933,14.26
3.812,0.347,-5.9,14.262
2.123,-4.092,-4.769,14.343
2.546,-4.485,-4.638,14.348
2.638,-5.654,-4.315,14.35
2.562,-6.132,-4.57,14.447
2.938,-6.608,-5.11,14.449
3.219,-7.124,-4.295,14.45
3.11,-8.202,-3.628,14.452
3.571,-8.594,-3.017,14.454
3.867,-8.813,-2.693,14.455
4.849,-8.083,3.186,14.546
4.03,-7.421,5.462,14.548
4.807,-8.147,4.933,14.549
5.162,-9.776,3.852,14.551
4.862,-9.176,5.652,14.572
3.913,-8.158,7.678,14.647
3.888,-7.705,7.745,14.649
3.332,-6.895,7.295,14.651
3.165,-6.216,6.236,14.652
2.429,-4.968,6.348,14.658
3.06,-4.868,5.824,14.746
1.96,-12.968,3.124,14.749
2.9,-12.18,1.74,14.754
2.2,-1.7,10.1,14.756
1.36,-4.468,6.624,14.757
0.32,-5.296,3.228,14.846
-0.64,-3.328,5.604,14.847
-1.46,-4.812,5.416,14.849
-2.58,-6.516,5.188,14.851
-2.831,-7.625,4.199,14.852
-3.164,-8.135,5.662,14.945
-4.089,-9.364,6.746,14.947
-4.342,-11.962,6.453,14.948
-3.549,-9.258,6.468,14.961
2.463,-7.671,9.533,15.046
4.33,-8.801,11.185,15.049
4.656,-7.043,13.751,15.06
1.488,-7.024,8.644,15.061
0.854,-8.664,2.541,15.063
2.282,-7.875,5.171,15.146
3.649,-7.105,7.023,15.147
2.947,-7.526,4.313,15.149
2.473,-7.768,2.879,15.151
2.434,-7.96,4.403,15.157
2.693,-6.333,7.853,15.246
2.311,-6.678,8.178,15.247
2.409,-7.807,5.892,15.249
2.521,-8.194,4.993,15.251
2.341,-7.788,5.486,15.252
3.044,-6.311,6.811,15.35
2.511,-6.578,6.578,15.352
2.244,-6.511,6.211,15.353
2.169,-6.122,7.182,15.365
1.722,-6.356,7.056,15.367
1.756,-6.389,6.289,15.446
1.753,-6.633,6.273,15.447
2.271,-6.678,6.898,15.449
1.653,-7.133,7.073,15.454
0.833,-6.733,7.333,15.456
0.767,-7.933,6.367,15.546
1.538,-8.453,5.699,15.547
2.649,-7.189,6.404,15.549
2.165,-7.79,5.084,15.551
2.165,-7.79,5.084,15.552
3.192,-7.402,5.667,15.647
2.924,-7.394,5.5,15.65
3.229,-7.118,5.5,15.652
2.18,-8.055,5.767,15.653
2.792,-7.502,6.367,15.655
3.018,-7.571,4.8,15.75
2.616,-7.596,5.267,15.751
3.024,-7.794,6.1,15.765
2.447,-7.988,5.1,15.767
2.541,-8.165,5.0,15.769
2.133,-7.967,5.067,15.85
2.133,-7.967,4.467,15.852
2.269,-8.008,4.667,15.853
1.816,-7.796,5.167,15.855
2.082,-7.729,5.4,15.857
2.355,-7.886,5.133,15.947
2.218,-7.771,5.6,15.953
2.214,-7.622,5.433,15.954
2.261,-7.71,5.233,15.956
2.567,-7.433,5.533,15.958
0.66,-8.956,4.092,16.045
1.1,-8.74,3.68,16.047
1.72,-8.912,3.184,16.049
0.64,-8.864,3.148,16.05
-0.92,-9.128,4.596,16.052
0.88,-8.528,3.896,16.145
2.66,-7.916,3.812,16.157
2.4,-7.42,3.94,16.159
2.66,-8.136,4.352,16.162
2.7,-7.68,6.26,16.164
0.967,-8.13,5.552,16.245
3.536,-7.839,6.612,16.255
4.057,-6.733,9.705,16.258
3.936,-7.439,6.712,16.26
3.064,-6.861,5.188,16.262
2.634,-6.16,7.903,16.345
2.883,-5.451,8.523,16.347
2.234,-6.098,6.355,16.349
3.066,-6.502,5.045,16.35
4.57,-6.491,3.974,16.352
5.019,-6.395,6.29,16.445
5.39,-5.972,7.545,16.447
4.586,-5.329,6.657,16.449
2.557,-7.326,0.851,16.45
7.743,-3.574,-3.551,16.452
7.196,-0.511,6.472,16.545
5.036,-5.192,-1.881,16.546
5.066,-7.002,-3.855,16.553
7.004,-5.589,-0.272,16.554
6.939,-5.108,1.176,16.647
5.927,-4.032,-0.079,16.649
4.397,-5.131,-0.664,16.65
3.701,-7.39,0.255,16.652
3.635,-9.349,2.658,16.657
3.269,-7.922,6.382,16.746
0.667,-7.767,8.167,16.752
-0.118,-7.556,8.176,16.754
-0.429,-7.178,9.998,16.755
-1.449,-8.678,11.858,16.757
0.426,-5.923,11.037,16.845
-1.804,-4.166,8.84,16.847
-2.935,-4.049,6.054,16.849
-0.877,-6.247,7.868,16.85
1.51,-5.486,12.399,16.852
-0.174,-5.323,13.437,16.945
-1.72,-9.928,12.402,16.947
-0.815,-12.021,14.352,16.949
-0.973,-7.482,13.327,16.95
-3.185,-6.679,10.548,16.952
-3.882,-7.171,11.5,17.045
-3.355,-10.214,11.467,17.047
-4.937,-17.117,6.615,17.049
-3.771,-14.947,6.408,17.05
-2.92,-9.528,17.396,17.055
1.139,-5.89,16.367,17.145
5.549,-6.863,-2.667,17.147
1.188,-9.453,1.9,17.149
0.663,-8.184,7.667,17.15
1.678,-7.68,2.933,17.152
0.3,-8.0,3.7,17.245
0.345,-8.014,9.867,17.247
2.727,-6.743,5.967,17.248
1.537,-9.116,3.933,17.25
0.967,-7.833,5.333,17.265
0.557,-7.561,5.467,17.345
1.378,-8.18,5.733,17.346
2.204,-7.249,7.267,17.348
1.404,-7.449,7.167,17.349
0.396,-8.251,4.733,17.351
0.188,-8.763,3.095,17.445
1.285,-7.999,4.32,17.447
1.127,-8.038,6.085,17.448
1.176,-8.027,5.789,17.45
1.051,-8.411,3.996,17.465
2.357,-8.84,5.044,17.545
3.175,-8.705,3.698,17.552
3.295,-8.292,4.443,17.554
3.577,-6.448,6.181,17.555
2.14,-8.104,5.828,17.557
2.28,-8.748,4.936,17.647
2.0,-8.44,4.58,17.653
3.48,-7.668,5.376,17.655
2.84,-7.444,5.708,17.666
1.82,-8.272,5.204,17.668
2.1,-7.36,5.52,17.745
0.9,-7.84,5.88,17.747
1.12,-8.112,5.584,17.754
0.94,-7.484,5.988,17.756
1.089,-7.145,6.284,17.758
0.746,-7.829,5.582,17.845
1.187,-7.436,5.865,17.847
1.544,-8.02,5.662,17.848
0.804,-7.918,6.039,17.85
0.623,-7.415,6.291,17.852
1.151,-8.457,5.539,17.97
3.311,-6.855,5.316,17.972
-0.781,-9.996,4.652,17.973
2.96,-7.098,6.976,17.975
1.133,-8.365,4.947,17.977
2.147,-7.834,5.841,18.046
1.789,-6.545,5.984,18.048
1.051,-6.757,5.839,18.06
-0.275,-9.224,3.71,18.062
4.865,-4.626,4.634,18.071
3.347,-7.534,10.541,18.073
0.997,-8.524,1.713,18.144
1.326,-8.707,3.095,18.146
0.059,-8.465,5.963,18.148
1.579,-9.12,6.484,18.157
3.288,-7.422,5.648,18.244
0.726,-6.807,3.395,18.246
1.127,-8.732,5.39,18.248
0.015,-9.454,5.538,18.249
1.634,-7.084,6.964,18.345
1.787,-7.197,4.053,18.347
1.044,-7.608,5.72,18.353
1.833,-8.767,5.033,18.354
2.408,-7.4,3.151,18.356
1.536,-8.267,6.517,18.47
1.092,-8.9,5.449,18.472
1.529,-7.433,4.894,18.483
1.541,-7.567,5.885,18.485
0.817,-7.567,5.531,18.488
1.912,-8.294,4.296,18.547
2.045,-7.678,3.918,18.549
3.263,-7.118,5.312,18.55
1.8,-7.9,5.8,18.563
3.62,-5.99,6.327,18.565
3.182,-8.159,5.306,18.566
3.486,-6.457,4.271,18.568
2.742,-7.739,2.742,18.646
3.325,-9.135,4.725,18.648
2.895,-6.593,4.695,18.652
5.702,-6.783,5.002,18.745
2.603,-9.724,2.203,18.746
6.943,-7.281,3.343,18.748
5.559,-8.702,3.759,18.75
4.421,-6.87,4.021,18.751
7.414,-9.398,1.811,18.845
3.886,-14.625,-2.526,18.857
0.629,-15.657,-8.086,18.858
3.957,-10.076,-8.879,18.87
4.871,-5.389,-6.545,18.872
3.212,-9.056,-3.924,18.945
4.998,-5.591,-1.579,18.947
10.709,-5.068,3.204,18.95
11.553,-5.36,7.981,18.951
11.317,2.138,4.687,18.953
6.461,4.938,-0.036,19.019
1.5,4.4,-5.0,19.02
0.472,-0.078,-5.466,19.026
1.767,-6.239,-2.996,19.028
1.922,-9.974,0.031,19.03
1.063,-8.839,0.137,19.144
-1.184,-6.71,-0.516,19.146
0.053,-7.971,0.947,19.148
2.467,-10.533,2.167,19.155
-3.747,-12.096,-2.314,19.246
-8.836,-13.558,-6.898,19.258
-4.865,-12.564,-5.676,19.26
-3.616,-13.146,-2.688,19.262
-7.26,-15.956,-3.105,19.272
-3.651,-14.361,-1.237,19.273
-2.121,-12.082,-4.824,19.346
-5.31,-9.541,-8.262,19.347
0.698,-6.244,-5.248,19.349
2.896,-14.488,-6.195,19.351
0.085,-12.45,-1.081,19.352
5.034,-8.328,-8.173,19.445
1.084,-13.081,-0.303,19.447
-0.899,-10.795,-3.64,19.449
-1.658,-8.29,-5.852,19.451
-3.205,-8.927,-7.601,19.452
-2.865,-8.718,-8.558,19.545
-4.475,-6.282,-12.322,19.546
-9.693,-2.809,-12.349,19.548
-9.829,-12.664,-4.304,19.554
-9.042,-12.473,-7.793,19.565
-1.402,-15.611,-4.62,19.648
4.369,-12.756,-1.646,19.65
0.212,-5.241,-7.838,19.652
-2.151,-3.753,-7.53,19.653
-1.512,-5.859,-5.762,19.655
-1.641,-6.904,-5.988,19.745
-2.584,-8.719,-5.197,19.746
-1.857,-8.985,-5.091,19.748
-1.692,-8.062,-6.178,19.754
-1.498,-7.189,-6.08,19.756
-0.26,-7.024,-6.768,19.844
-0.4,-6.58,-6.56,19.846
0.1,-6.04,-7.28,19.847
-0.68,-7.072,-6.804,19.849
-0.4,-7.4,-6.3,19.945
0.84,-6.424,-7.068,19.946
-0.24,-7.676,-6.132,19.948
-0.46,-8.344,-6.008,19.949
-0.02,-7.408,-6.556,19.961
-0.32,-7.448,-6.336,20.044
-2.119,-7.497,-5.984,20.046
-2.36,-7.501,-5.472,20.048
-1.726,-7.829,-5.645,20.049
-1.56,-8.401,-5.572,20.051
-2.188,-7.841,-5.238,20.145
-1.759,-7.196,-5.812,20.146
-0.866,-7.228,-6.173,20.148
-0.891,-7.857,-5.018,20.149
0.037,-7.317,-6.453,20.157
0.404,-7.478,-6.359,20.249
1.222,-6.992,-6.596,20.251
2.158,-7.71,-5.848,20.252
1.297,-9.116,-4.781,20.254
1.1,-10.1,-4.1,20.256
0.46,-8.9,-5.78,20.345
0.527,-7.509,-5.809,20.346
-0.382,-8.473,-5.173,20.348
-0.745,-8.618,-4.718,20.36
-2.011,-8.136,-5.576,20.369
-1.437,-7.583,-4.647,20.467
-1.327,-7.234,-4.905,20.469
-0.984,-8.319,-4.597,20.471
-2.001,-9.505,-4.46,20.472
-2.143,-8.815,-4.209,20.474
0.559,-8.061,-5.222,20.546
-0.314,-7.971,-5.943,20.548
-0.614,-7.571,-6.043,20.55
-1.029,-8.043,-5.086,20.552
-0.894,-7.441,-6.382,20.554
-0.624,-7.737,-5.773,20.669
-0.378,-8.016,-6.233,20.671
-0.994,-7.741,-5.382,20.673
-0.147,-8.22,-5.941,20.674
-0.122,-7.884,-6.067,20.676
6.271,-7.143,-8.786,20.746
13.798,-3.053,-9.406,20.747
9.767,-2.349,-4.598,20.758
5.067,4.151,-2.198,20.76
6.116,6.624,-2.051,20.762
-0.802,4.247,-9.006,20.763
4.98,-0.428,-6.696,20.843
4.12,-5.872,-6.904,20.844
2.138,-6.036,-4.456,20.85
3.173,-3.287,-4.067,20.851
1.131,-5.902,-6.149,20.944
0.623,-10.143,-7.514,20.946
1.489,-10.544,-9.089,20.948
0.196,-7.471,-5.432,20.949
-0.533,-6.933,-4.567,20.951
-0.69,-7.784,-9.094,21.044
-1.371,-10.614,-8.843,21.05
-2.314,-9.043,-7.029,21.052
-3.669,-6.651,-7.082,21.053
-5.096,-7.973,-8.778,21.055
-3.987,-10.12,-6.295,21.144
-3.088,-9.388,-5.403,21.156
-3.094,-6.194,-6.652,21.157
-3.73,-6.83,-6.642,21.159
-4.983,-8.849,-5.763,21.161
-4.354,-6.826,-8.095,21.248
-4.049,-5.558,-8.668,21.249
-5.471,-5.331,-8.977,21.251
-4.39,-6.892,-8.434,21.253
-4.31,-8.408,-6.966,21.254
-5.112,-6.764,-9.742,21.369
-4.216,-5.477,-8.193,21.371
-3.746,-4.874,-8.005,21.373
-2.891,-6.32,-12.721,21.374
-3.96,-10.112,-13.316,21.376
-5.88,-3.236,-7.148,21.446
-4.34,-6.988,-13.984,21.448
-5.98,-17.936,-8.248,21.449
-3.18,-12.356,-7.308,21.451
5.4,-1.78,-9.54,21.453
0.04,-3.452,-8.936,21.47
0.52,-3.856,-8.808,21.544
1.12,-2.796,-8.728,21.546
0.08,-4.064,-8.752,21.547
-0.5,-5.14,-8.02,21.549
-1.9,-5.4,-8.2,21.647
-1.72,-6.264,-7.852,21.648
-1.22,-5.004,-8.172,21.65
-1.08,-4.856,-8.308,21.652
-1.0,-4.42,-8.56,21.75
-1.56,-4.932,-8.076,21.751
-2.18,-5.376,-8.168,21.753
-1.88,-4.776,-7.868,21.754
-1.0,-4.36,-7.98,21.756
-1.26,-4.772,-8.696,21.844
-1.98,-4.876,-8.668,21.846
-0.38,-4.356,-8.808,21.848
-0.84,-3.308,-9.244,21.849
-0.9,-3.82,-8.76,21.855
-0.86,-4.832,-8.276,21.945
-0.58,-3.676,-8.568,21.949
-0.44,-4.168,-8.224,21.952
0.273,-4.973,-9.018,21.954
0.509,-3.209,-9.227,21.955
-0.917,-3.174,-9.023,22.044
-1.062,-3.857,-8.972,22.046
-0.985,-3.672,-9.217,22.047
-0.24,-5.589,-8.268,22.049
-0.174,-4.238,-8.615,22.056
-1.221,-4.368,-9.204,22.144
-0.585,-4.372,-9.417,22.146
1.185,-5.528,-9.083,22.147
1.089,-6.834,-9.202,22.149
3.092,-2.292,-9.415,22.155
1.893,0.207,-9.363,22.244
-1.3,-3.2,-8.8,22.25
-3.004,-4.696,-10.181,22.252
-2.452,-3.048,-7.841,22.254
-2.222,-2.378,-9.089,22.266
-1.53,0.365,-9.452,22.343
1.213,-0.007,-9.767,22.345
-0.019,-1.99,-9.205,22.346
-1.692,-0.704,-9.738,22.352
-0.43,0.565,-9.252,22.353
1.4,1.4,-9.6,22.444
1.092,-0.7,-10.162,22.446
1.177,1.0,-9.585,22.447
2.892,0.7,-10.062,22.449
0.725,-2.2,-9.648,22.451
-1.518,-2.012,-8.912,22.544
-0.896,-2.72,-9.72,22.546
0.604,-2.32,-9.82,22.548
0.694,-0.174,-9.068,22.549
-1.443,0.092,-8.565,22.555
-1.097,-0.663,-8.566,22.647
0.224,-5.259,-10.283,22.648
-0.085,-6.116,-10.53,22.65
-1.327,-1.378,-8.35,22.662
1.144,-1.147,-8.89,22.672
0.357,-3.025,-10.219,22.744
-0.263,-3.832,-10.103,22.746
1.23,-2.689,-10.625,22.747
2.111,-0.256,-9.989,22.753
2.589,-0.004,-9.691,22.754
2.857,1.949,-9.411,22.845
2.185,1.624,-9.716,22.847
0.929,0.152,-10.068,22.849
-0.044,0.073,-9.447,22.852
0.132,0.605,-8.895,22.854
0.747,1.058,-10.142,22.969
0.22,2.46,-9.1,22.97
2.546,2.281,-7.279,22.972
3.503,1.531,-10.189,22.974
2.455,1.896,-11.384,22.975
2.814,4.922,-9.567,23.045
3.665,4.959,-8.9,23.053
3.58,5.155,-8.533,23.064
1.035,7.041,-8.3,23.066
-1.41,9.327,-8.067,23.068
1.575,8.831,-6.733,23.07
0.582,5.718,-5.345,23.142
4.081,0.175,1.602,23.144
7.829,1.343,-0.221,23.146
9.637,2.627,2.215,23.147
11.112,3.26,-1.684,23.243
8.776,3.18,-5.632,23.245
7.552,2.66,-9.264,23.251
8.496,4.88,-11.172,23.253
9.384,7.682,-8.001,23.344
9.247,9.355,-5.497,23.345
5.8,4.9,-9.1,23.347
1.667,6.067,-10.667,23.354
0.533,10.633,-5.533,23.356
2.483,13.364,-4.375,23.444
0.614,8.383,-5.264,23.445
-1.548,7.308,-4.076,23.465
-1.762,7.461,-2.021,23.467
-2.85,9.518,-0.405,23.469
-3.682,10.055,-2.182,23.544
-6.455,10.836,-3.255,23.545
-8.836,12.391,-4.336,23.547
-9.591,12.227,-5.591,23.552
-8.027,12.218,-4.027,23.554
-7.447,11.859,-6.78,23.647
-7.118,11.245,-8.722,23.649
-6.076,8.873,-7.637,23.65
-5.182,7.855,-5.378,23.652
-4.816,7.451,-4.576,23.654
-4.587,7.391,-5.111,23.744
-5.6,7.2,-5.2,23.745
-5.845,8.218,-3.918,23.747
-4.545,7.918,-5.818,23.749
-2.551,16.536,-9.356,23.751
8.749,18.898,3.467,23.848
-3.243,3.814,0.629,23.86
1.165,13.631,-10.71,23.863
-3.612,9.176,-14.592,23.865
-1.149,9.102,-6.067,23.868
2.91,9.516,2.935,23.944
1.7,8.9,0.0,23.945
-1.149,9.291,-5.593,23.947
-0.095,8.345,-5.656,23.948
-1.24,8.7,-3.82,23.95
-1.472,8.265,-4.51,24.043
-1.607,8.753,-3.167,24.045
-1.279,9.118,-3.676,24.046
0.532,7.655,-6.09,24.048
1.46,7.72,-6.9,24.049
-1.52,7.86,-6.4,24.144
-2.771,8.743,-5.886,24.145
-0.21,7.819,-6.038,24.147
-0.504,8.688,-5.095,24.148
-0.305,8.01,-5.119,24.15
0.047,7.709,-6.169,24.243
-1.269,7.564,-6.384,24.245
0.422,7.527,-5.547,24.246
-1.069,7.864,-5.484,24.248
-1.533,7.609,-5.729,24.25
-1.856,7.355,-5.995,24.343
-1.087,7.991,-6.111,24.349
-1.067,7.191,-5.971,24.358
-1.82,7.8,-6.24,24.36
-1.596,7.555,-5.675,24.362
-1.172,8.56,-5.234,24.443
-0.708,8.138,-4.622,24.449
-0.47,8.649,-4.514,24.451
-0.137,8.583,-4.747,24.453
0.147,8.863,-4.851,24.454
1.46,9.399,-4.628,24.543
2.855,7.726,-2.629,24.545
7.383,8.786,-0.663,24.546
5.142,6.19,0.648,24.548
4.605,5.473,-2.099,24.558
3.112,5.715,7.31,24.652
7.456,1.408,2.505,24.654
6.703,5.134,-0.729,24.655
7.039,7.202,-0.524,24.657
5.696,6.588,-3.495,24.66
4.153,4.853,-2.671,24.743
5.316,3.349,-2.543,24.745
3.706,6.406,-4.041,24.746
1.803,10.863,-4.494,24.751
2.293,9.319,-5.114,24.753
-2.923,6.948,-4.846,24.843
-6.361,9.173,-5.408,24.844
-7.543,12.49,-5.531,24.846
-4.974,12.441,-4.512,24.848
-4.236,13.557,-0.001,24.943
-6.246,8.828,-8.804,24.945
-8.905,9.636,-7.551,24.947
-3.867,17.851,-5.14,24.952
-2.14,17.765,-7.742,24.962
-4.566,11.111,-4.343,25.043
-2.604,4.988,-3.795,25.045
-2.189,10.037,-3.014,25.047
-3.165,9.99,-5.619,25.048
-3.547,8.173,-7.067,25.05
-6.391,12.403,-5.986,25.144
-7.879,10.418,-7.676,25.146
-7.05,9.861,-7.562,25.149
-0.566,8.611,-5.543,25.151
5.035,7.89,-2.419,25.152
1.977,9.126,-3.971,25.243
-0.235,8.71,-5.181,25.245
-0.441,9.342,-4.724,25.247
1.724,8.852,-4.605,25.248
1.261,8.398,-4.776,25.254
1.075,8.17,-6.119,25.343
1.46,8.22,-5.6,25.345
-0.145,8.63,-4.219,25.347
0.693,8.853,-5.267,25.365
0.687,8.307,-6.133,25.367
0.202,9.057,-4.152,25.444
-0.719,8.79,-3.136,25.446
-0.753,9.004,-2.786,25.448
-0.051,8.761,-4.537,25.45
-0.714,8.703,-3.539,25.452
-0.719,8.79,-3.136,25.543
-0.104,8.687,-4.497,25.545
-0.491,8.705,-4.232,25.552
0.737,8.42,-4.486,25.554
0.104,8.586,-4.22,25.556
-0.151,9.473,-3.214,25.647
0.589,9.888,-3.313,25.648
1.109,10.277,-1.739,25.65
2.198,7.78,-1.276,25.652
2.288,7.878,-4.553,25.653
-0.246,8.644,-6.511,25.768
-1.735,8.383,-3.858,25.769
-0.662,8.155,-3.437,25.781
-0.634,8.696,-4.189,25.783
1.338,8.655,-4.437,25.784
-0.512,8.631,-2.344,25.845
1.96,9.073,-2.724,25.847
2.202,9.428,-6.943,25.848
-0.756,10.383,-5.761,25.85
3.46,8.873,-3.724,25.852
3.672,8.842,-2.281,25.857
1.868,8.726,-1.336,25.942
2.77,7.964,-6.74,25.943
2.913,9.53,-7.826,25.951
2.855,8.596,-3.311,25.952
2.129,8.545,-1.559,26.043
1.284,8.692,-3.769,26.045
-0.05,8.568,-4.801,26.046
1.115,8.172,-3.729,26.048
1.226,8.902,-4.551,26.05
3.191,9.074,-1.47,26.149
2.655,7.913,-2.115,26.162
2.632,8.97,-2.323,26.164
5.17,9.075,-2.543,26.166
3.953,9.068,-2.449,26.167
2.432,7.87,-2.023,26.243
2.798,8.855,-2.734,26.245
4.092,8.519,-3.236,26.246
3.355,9.013,-3.915,26.257
3.536,8.66,-2.455,26.258
2.417,7.508,-3.094,26.343
3.013,9.317,-4.162,26.345
3.485,8.338,-1.972,26.346
3.791,8.174,-2.07,26.348
3.37,7.775,-4.243,26.35
5.142,8.447,-4.004,26.443
4.479,8.526,-0.898,26.445
4.887,6.262,0.483,26.446
5.568,8.323,-2.77,26.448
6.028,7.509,-5.021,26.45
5.758,8.553,-2.796,26.543
5.17,7.257,-0.925,26.545
5.506,7.202,-2.764,26.546
5.219,8.04,-4.347,26.552
4.915,7.872,-3.838,26.647
4.396,7.132,-2.291,26.648
4.449,7.983,-2.823,26.65
4.592,7.864,-3.581,26.652
4.958,7.461,-3.342,26.659
4.82,8.095,-1.813,26.742
5.139,7.915,-1.161,26.744
5.179,7.73,-1.721,26.746
4.748,7.688,-1.952,26.752
3.977,8.181,-1.99,26.754
3.506,8.548,-2.394,26.843
5.725,7.369,-2.241,26.844
5.824,7.794,-1.376,26.852
4.289,7.778,-1.978,26.853
4.082,9.155,-2.018,26.855
5.004,7.991,-2.223,26.943
4.564,9.172,-3.351,26.944
2.138,8.423,-3.011,26.946
3.166,10.168,1.687,26.948
0.404,8.091,1.177,26.949
-3.668,4.632,2.789,27.043
-4.511,1.892,4.402,27.052
-4.136,3.409,5.323,27.054
-4.198,2.868,4.383,27.055
-4.464,-1.309,4.477,27.057
-1.878,-5.178,5.916,27.143
-3.549,0.551,8.21,27.144
-2.757,3.091,9.262,27.146
-1.304,-0.134,7.064,27.148
-0.232,-5.789,5.845,27.149
1.867,-4.233,8.167,27.243
-0.222,-1.056,10.444,27.244
0.056,-3.611,12.289,27.246
4.269,-6.438,15.122,27.248
4.809,-3.218,18.922,27.259
9.907,-5.076,14.552,27.343
9.705,-7.054,11.709,27.346
10.681,-7.793,11.886,27.347
11.444,-3.579,14.358,27.349
10.791,-3.302,13.804,27.351
10.115,-5.263,10.427,27.442
8.661,-6.075,9.35,27.444
7.254,-6.199,8.798,27.446
5.965,-6.019,8.638,27.447
4.238,-5.114,8.328,27.449
3.357,-5.232,7.663,27.542
3.207,-5.876,6.652,27.544
2.099,-4.989,6.578,27.546
2.581,-4.793,7.786,27.552
1.757,-4.587,8.381,27.554
1.964,-4.719,8.379,27.646
2.234,-4.67,8.055,27.648
1.862,-3.809,7.813,27.649
1.247,-3.034,8.251,27.67
1.677,-3.883,8.574,27.673
1.326,-2.196,9.613,27.743
1.17,-1.722,10.335,27.744
0.8,-0.6,10.1,27.75
0.404,0.017,10.052,27.752
1.422,-0.113,9.361,27.753
-0.109,-0.835,10.196,27.843
1.848,0.491,9.874,27.844
1.883,-1.17,9.891,27.846
0.774,0.196,9.087,27.847
0.474,0.096,10.487,27.849
2.583,-1.77,8.691,27.943
2.422,-2.313,8.861,27.944
4.735,-2.461,8.517,27.946
0.074,0.396,11.187,27.947
2.191,0.165,9.096,27.949
1.126,-1.296,9.713,28.043
2.035,-0.461,9.417,28.045
2.37,0.078,9.635,28.063
3.365,-0.539,8.483,28.066
4.187,-3.452,6.943,28.068
1.847,0.536,9.487,28.143
2.284,2.575,9.444,28.144
2.884,0.755,9.704,28.146
2.895,2.492,8.915,28.151
2.905,-0.852,9.565,28.152
1.821,1.734,9.741,28.245
2.911,0.597,9.231,28.247
1.695,2.672,9.675,28.249
2.205,0.948,9.665,28.25
2.337,1.459,9.397,28.343
2.179,1.446,9.519,28.344
2.511,1.657,9.151,28.346
2.179,1.906,9.239,28.347
2.174,1.378,9.014,28.349
1.563,1.921,9.263,28.446
2.016,1.945,9.196,28.448
2.184,1.855,9.404,28.473
1.811,2.297,9.131,28.475
1.774,1.978,9.214,28.476
-0.444,2.056,9.278,28.543
-0.263,1.937,9.485,28.546
-0.104,2.096,9.581,28.549
-0.204,2.196,9.581,28.553
-0.333,1.667,9.633,28.555
-0.448,1.952,9.559,28.627
-0.752,1.948,9.341,28.628
-1.015,2.285,9.426,28.63
-0.948,2.452,9.559,28.632
-0.585,2.015,9.474,28.639
-0.467,1.933,9.397,28.72
-1.096,2.804,9.52,28.722
-0.728,3.172,9.524,28.723
0.411,2.111,9.851,28.725
-0.673,2.627,9.521,28.842
-1.233,2.367,9.803,28.844
-0.643,2.757,9.808,28.859
-0.302,3.398,9.69,28.861
-0.06,2.74,10.382,28.863
0.093,1.293,9.963,28.946
-0.274,1.426,9.83,28.949
0.259,1.359,10.096,28.951
0.519,1.419,10.193,28.953
0.948,1.648,10.141,28.954
0.289,6.689,9.644,28.961
0.966,0.781,9.571,29.042
1.192,-2.41,9.704,29.044
1.25,0.439,9.622,29.046
1.401,2.179,9.444,29.047
2.273,1.612,9.023,29.049
1.3,3.18,8.74,29.142
2.437,1.438,9.435,29.144
1.095,4.263,9.158,29.145
1.284,4.329,8.194,29.151
1.358,3.685,8.703,29.153
0.847,3.442,8.958,29.242
1.433,3.933,8.633,29.244
1.379,2.837,9.063,29.246
1.388,3.23,8.904,29.247
1.414,3.309,9.225,29.249
1.049,2.981,9.086,29.343
1.167,3.067,9.367,29.344
0.988,3.03,9.204,29.346
1.139,3.149,9.318,29.348
1.418,3.286,8.981,29.353
-0.576,3.265,9.208,29.457
-0.675,2.912,9.464,29.458
-0.601,3.153,9.044,29.46
-0.624,3.235,8.992,29.462
-0.323,3.329,9.004,29.464
-0.612,3.291,9.074,29.543
-0.672,3.252,9.232,29.545
-0.467,3.333,9.267,29.546
-0.516,3.157,9.395,29.55
-0.492,3.222,9.103,29.561
