vertical_Accel_x,vertical_Accel_y,vertical_Accel_z,accel_time_list
1.772,5.862,7.764,0.0
1.735,5.476,7.432,0.002
1.115,7.076,9.592,0.003
-0.035,6.124,6.968,0.009
3.752,4.662,8.124,0.011
1.32,6.6,7.74,0.1
0.354,5.771,7.123,0.101
1.818,5.99,7.941,0.103
1.453,5.867,7.673,0.105
1.048,6.438,7.476,0.2
1.595,5.976,7.952,0.206
1.365,5.924,7.768,0.208
1.315,5.776,7.492,0.21
1.411,5.757,7.594,0.211
1.411,5.757,7.594,0.3
1.508,5.738,7.696,0.302
1.399,5.995,7.65,0.304
1.353,5.867,7.473,0.305
1.328,5.538,7.436,0.307
1.311,5.757,7.394,0.4
1.404,5.719,7.398,0.402
1.304,5.719,7.198,0.404
1.139,5.595,7.33,0.405
0.928,5.638,7.636,0.407
2.333,3.933,8.467,0.5
2.567,3.627,8.613,0.502
2.238,3.452,8.976,0.503
1.952,3.79,9.045,0.505
2.481,3.784,8.942,0.507
2.462,3.688,9.044,0.6
2.281,3.764,9.082,0.605
2.329,3.414,8.957,0.607
2.348,3.51,8.855,0.613
2.386,3.603,8.851,0.615
2.276,3.545,8.972,0.7
2.276,3.545,8.972,0.702
2.381,3.284,8.942,0.703
2.233,3.133,9.067,0.705
2.181,3.364,8.882,0.715
2.348,3.41,9.055,0.8
2.2,3.36,8.98,0.802
2.11,3.398,8.999,0.804
2.162,3.368,8.784,0.805
2.014,3.417,8.509,0.807
2.067,3.487,8.093,0.9
2.095,3.341,7.47,0.902
2.0,3.16,7.38,0.903
1.729,3.274,7.437,0.905
1.905,3.859,7.63,0.906
1.41,3.549,7.949,1.016
1.02,2.498,7.598,1.018
0.653,2.165,7.665,1.025
0.502,2.41,8.21,1.027
0.31,2.349,8.349,1.028
-0.395,1.1,8.65,1.1
-1.278,-0.3,8.318,1.103
-2.112,-1.288,8.182,1.107
-0.326,-1.137,9.071,1.123
-0.811,-1.894,8.343,1.125
0.84,-4.8,7.12,1.2
0.172,-4.847,7.799,1.202
-0.139,-4.732,7.973,1.207
-0.515,-5.158,8.103,1.208
-1.528,-6.147,7.699,1.21
-0.6,-9.5,4.4,1.3
-1.133,-10.433,3.567,1.301
-1.5,-10.4,2.9,1.303
-1.633,-9.733,3.067,1.305
-1.433,-8.933,3.567,1.306
-0.687,-8.724,3.511,1.4
0.52,-8.873,3.39,1.406
0.363,-8.888,2.618,1.408
1.357,-9.344,0.812,1.41
0.946,-10.034,-0.267,1.412
1.078,-10.022,-3.889,1.5
0.9,-10.2,-5.1,1.501
2.545,-9.695,-6.316,1.511
3.315,-9.016,-7.402,1.513
3.234,-9.176,-6.885,1.52
2.674,-8.254,-8.618,1.6
4.437,-9.397,-7.699,1.605
5.19,-9.71,-5.502,1.607
3.831,-9.969,-7.914,1.608
3.753,-9.947,-8.029,1.61
1.859,-10.807,-6.334,1.7
1.68,-10.498,-6.222,1.705
1.427,-10.525,-5.747,1.707
1.38,-10.298,-5.022,1.709
1.462,-9.785,-4.254,1.71
2.833,-8.767,-4.333,1.799
2.865,-8.435,-3.947,1.801
2.908,-8.592,-4.178,1.802
2.951,-8.649,-4.91,1.804
3.141,-8.259,-5.312,1.902
3.467,-7.833,-5.367,1.904
3.531,-8.069,-5.714,1.913
3.657,-8.443,-5.869,1.915
3.639,-8.561,-5.792,1.917
3.559,-8.541,-5.388,2.004
3.188,-8.712,-5.082,2.006
3.133,-8.967,-4.833,2.014
3.216,-9.184,-4.757,2.016
3.553,-9.447,-4.429,2.017
2.523,-10.569,-3.608,2.102
2.693,-11.166,-2.941,2.104
2.155,-11.151,-2.595,2.105
1.787,-10.632,-2.381,2.112
1.392,-9.677,-2.431,2.113
1.684,-8.644,-4.115,2.2
1.626,-9.046,-4.482,2.206
1.926,-9.246,-4.882,2.207
1.932,-8.952,-5.451,2.209
2.295,-8.655,-5.452,2.211
1.174,-9.343,-5.24,2.3
0.828,-9.132,-5.908,2.31
1.051,-9.038,-5.574,2.311
0.645,-8.511,-5.332,2.313
0.5,-8.5,-4.4,2.314
-1.102,-8.474,-3.794,2.4
-1.297,-8.589,-4.709,2.402
-1.411,-8.968,-4.768,2.403
-1.293,-9.042,-4.522,2.408
-1.229,-9.032,-4.712,2.41
-1.163,-9.89,-2.696,2.5
-1.318,-10.045,-2.518,2.502
-1.327,-9.718,-2.127,2.503
-1.274,-9.201,-1.74,2.505
-1.159,-8.813,-1.525,2.506
-1.08,-8.416,-1.446,2.61
-0.986,-8.131,-1.453,2.612
-0.633,-7.933,-1.533,2.614
-0.327,-7.718,-1.527,2.615
0.03,-7.624,-1.47,2.617
0.336,-7.409,-1.464,2.701
0.659,-6.987,-1.375,2.702
0.934,-6.547,-1.199,2.708
0.853,-6.202,-1.081,2.709
0.574,-5.899,-1.06,2.711
0.346,-5.717,-0.987,2.799
0.247,-5.898,-1.119,2.801
0.252,-6.321,-1.148,2.802
0.529,-7.143,-0.837,2.804
1.405,-9.104,4.738,2.806
4.935,-8.449,-1.183,2.9
3.19,-5.609,-6.605,2.901
4.081,-3.017,-11.01,2.903
3.674,-2.714,-10.963,2.905
3.424,-3.428,-7.838,2.906
2.461,-5.135,-8.119,2.999
2.604,-7.017,-10.698,3.001
2.699,-9.771,-13.15,3.009
0.933,-11.453,-13.327,3.011
2.505,-10.145,-11.148,3.02
0.676,-11.818,-7.482,3.099
-0.667,-14.033,-5.667,3.104
-2.514,-16.969,-3.631,3.105
-2.733,-17.667,-2.233,3.107
-0.61,-14.549,-0.851,3.109
3.017,-10.28,0.456,3.2
3.556,-7.506,1.474,3.201
2.847,-6.227,0.429,3.203
1.748,-6.205,-0.836,3.204
1.162,-5.451,-1.784,3.211
0.027,-4.642,-2.782,3.3
-0.053,-4.742,-3.342,3.301
0.045,-5.316,-3.236,3.31
0.904,-4.553,-3.013,3.312
1.538,-3.874,-1.814,3.313
1.885,-3.416,-1.356,3.405
1.148,-4.805,0.855,3.406
1.476,-6.247,0.673,3.408
0.192,-6.795,-1.475,3.418
-0.129,-8.332,-2.512,3.42
2.067,-9.119,-3.077,3.499
2.297,-10.566,-4.804,3.504
1.592,-11.999,-6.911,3.506
1.136,-15.293,-8.785,3.507
-0.229,-20.606,-5.952,3.6
-0.573,-19.257,-4.856,3.611
-0.358,-17.013,-2.003,3.612
-1.303,-17.545,1.039,3.614
-0.731,-14.67,2.341,3.616
-1.186,-11.531,1.931,3.7
-1.263,-11.714,1.614,3.701
-1.047,-12.235,0.035,3.703
0.888,-9.859,-0.441,3.705
2.976,-7.118,-0.282,3.706
3.152,-4.895,-1.755,3.8
2.231,-4.032,-3.492,3.801
1.165,-4.416,-4.396,3.803
1.526,-3.957,-4.96,3.817
1.615,-3.504,-5.177,3.819
0.718,-4.074,-5.054,3.9
0.777,-4.611,-4.431,3.901
0.955,-5.084,-3.764,3.903
0.921,-5.363,-3.263,3.904
0.715,-5.984,-2.944,3.906
0.502,-6.79,-2.11,3.999
-0.022,-7.508,-1.792,4.001
-0.429,-8.447,-1.753,4.002
-0.702,-9.51,-1.99,4.004
-0.473,-10.263,-2.337,4.006
1.023,-9.606,-4.466,4.099
1.16,-9.915,-5.009,4.101
0.87,-11.992,-6.145,4.103
0.343,-14.736,-7.385,4.105
0.681,-15.345,-7.228,4.107
1.889,-11.747,-5.217,4.199
2.047,-8.487,-3.279,4.201
0.908,-9.402,-3.489,4.211
-1.1,-14.5,-6.1,4.212
-0.894,-17.126,-7.442,4.214
3.095,-12.875,-7.492,4.299
4.853,-8.953,-4.984,4.3
4.674,-6.674,-3.558,4.302
3.963,-5.263,-2.921,4.304
2.974,-4.794,-2.898,4.305
2.179,-4.599,-3.666,4.399
2.147,-4.527,-3.876,4.401
2.784,-4.024,-3.275,4.403
3.211,-2.691,-2.597,4.404
2.958,-1.978,-2.793,4.406
2.279,-3.139,-3.946,4.499
1.537,-5.637,-4.879,4.501
2.247,-7.147,-5.216,4.503
3.421,-7.301,-4.634,4.504
3.532,-7.572,-4.791,4.506
1.885,-9.496,-4.623,4.599
1.269,-11.174,-4.008,4.613
0.674,-11.542,-3.901,4.614
0.014,-12.046,-4.348,4.624
0.061,-16.273,-5.419,4.626
-2.425,-20.027,-4.573,4.699
-0.204,-17.52,-4.28,4.705
1.194,-13.029,-3.071,4.706
0.627,-9.463,-2.337,4.708
-0.216,-8.278,-2.122,4.71
-0.964,-11.134,-4.596,4.799
-0.862,-12.509,-5.443,4.801
1.119,-9.955,-4.372,4.803
2.287,-7.672,-3.37,4.804
2.125,-6.781,-3.513,4.806
1.606,-6.126,-3.742,4.902
1.236,-5.734,-3.396,4.903
1.181,-5.845,-3.328,4.905
1.351,-5.838,-3.474,4.907
1.889,-5.647,-3.317,4.908
1.401,-5.563,-2.903,4.999
1.619,-4.537,-2.457,5.001
1.419,-3.437,-2.357,5.002
0.932,-3.195,-2.295,5.004
0.017,-4.011,-2.751,5.006
-0.615,-5.416,-3.356,5.099
-0.824,-6.847,-3.927,5.1
-0.708,-8.095,-4.275,5.102
-0.173,-9.142,-4.682,5.103
1.881,-9.145,-5.228,5.202
1.543,-9.736,-5.585,5.203
0.626,-11.857,-6.56,5.205
0.172,-13.668,-7.392,5.207
-0.021,-15.37,-7.981,5.208
-1.547,-16.935,-4.765,5.299
0.098,-13.71,-3.99,5.301
0.796,-11.82,-3.48,5.302
-0.347,-14.235,-3.865,5.304
-1.047,-16.435,-4.165,5.306
1.895,-14.709,-1.469,5.399
2.919,-12.029,-0.632,5.401
3.229,-9.994,-0.048,5.402
3.315,-7.956,0.253,5.404
3.154,-6.114,0.288,5.406
2.641,-5.595,-0.257,5.499
1.881,-6.071,-0.968,5.501
1.854,-6.014,-1.512,5.502
2.132,-4.748,-1.687,5.508
2.306,-3.31,-1.177,5.51
1.27,-4.328,-0.513,5.599
0.196,-6.566,0.836,5.601
0.84,-7.757,0.174,5.606
1.281,-7.73,-0.321,5.608
1.858,-7.926,-0.706,5.609
1.906,-8.551,-1.304,5.699
1.547,-9.225,-1.498,5.701
0.842,-9.874,-1.394,5.706
-0.109,-10.715,-1.56,5.708
-0.717,-12.447,-1.589,5.72
-1.07,-14.972,-0.987,5.8
-0.87,-14.972,-0.687,5.801
-0.072,-12.655,-0.619,5.803
-0.67,-13.372,-0.787,5.805
-1.798,-16.917,-0.568,5.806
-1.317,-16.347,-0.189,5.901
-0.002,-12.283,-0.132,5.903
-0.236,-11.377,-0.009,5.905
-0.64,-12.243,-0.174,5.906
0.311,-10.602,-0.208,5.911
1.466,-7.694,-0.477,5.999
2.447,-5.825,-0.998,6.001
2.97,-5.628,-1.613,6.002
2.787,-6.481,-2.025,6.004
2.681,-6.83,-2.421,6.006
2.775,-6.379,-2.717,6.099
2.587,-6.081,-2.425,6.1
2.036,-6.523,-2.091,6.102
1.195,-8.002,0.331,6.112
0.609,-9.036,0.764,6.114
0.515,-9.694,1.006,6.2
0.991,-10.064,1.136,6.201
1.571,-10.572,1.262,6.203
1.779,-10.848,1.252,6.205
1.658,-10.497,1.003,6.206
1.554,-10.059,0.708,6.299
1.639,-9.924,0.776,6.301
1.571,-10.272,0.962,6.306
1.132,-11.107,0.96,6.307
0.625,-12.29,1.143,6.309
0.9,-12.6,5.7,6.398
0.945,-13.48,6.396,6.4
1.212,-13.449,6.59,6.402
1.406,-12.324,6.145,6.403
1.065,-12.061,6.212,6.409
0.806,-12.724,7.345,6.5
0.269,-12.478,7.376,6.502
0.414,-10.857,6.971,6.513
-0.57,-8.784,7.381,6.515
0.382,-7.155,7.782,6.524
-1.642,-5.135,8.039,6.599
-1.485,-4.746,7.566,6.601
-1.489,-4.947,7.018,6.607
-1.425,-5.331,6.428,6.608
-1.326,-5.306,6.016,6.61
-1.254,-5.363,5.909,6.698
-0.991,-4.617,6.647,6.7
-1.062,-4.777,6.911,6.706
-1.177,-4.847,7.179,6.708
-1.083,-5.034,7.394,6.71
-1.123,-4.953,7.621,6.798
-1.055,-4.689,7.496,6.799
-0.911,-4.379,7.191,6.801
-0.804,-4.091,6.977,6.803
-1.117,-4.166,7.606,6.899
-2.514,-3.148,9.227,6.9
-2.683,-1.706,10.266,6.91
-2.302,-1.362,10.104,6.912
-0.749,-1.097,10.986,6.913
-0.911,-1.023,12.714,6.998
-0.258,-0.95,12.281,7.0
0.823,-0.954,9.571,7.002
0.652,-1.362,7.976,7.003
-0.316,-1.999,8.462,7.005
-1.406,-2.411,10.257,7.098
-1.375,-2.984,11.152,7.1
-0.794,-2.989,11.543,7.106
-0.992,-1.531,12.077,7.108
-0.469,-1.423,12.008,7.11
-0.308,-1.469,11.423,7.198
-0.531,-1.477,10.592,7.2
-0.562,-1.354,9.685,7.202
0.264,-0.579,9.225,7.203
-0.289,-0.463,9.08,7.205
-0.92,2.2,9.06,7.298
-1.065,3.565,9.047,7.308
-0.798,3.931,8.98,7.309
-0.31,4.043,8.398,7.311
-0.169,4.202,8.186,7.313
0.83,6.017,7.391,7.399
0.83,6.017,7.391,7.402
0.965,5.809,7.196,7.404
0.704,5.674,7.313,7.407
0.43,5.717,7.691,7.408
0.252,5.787,8.057,7.498
0.457,5.861,8.17,7.5
0.361,5.935,8.383,7.502
0.348,6.013,8.443,7.509
0.322,6.07,8.365,7.51
0.652,6.287,8.157,7.597
0.722,6.47,8.265,7.599
0.761,6.435,8.483,7.601
0.765,7.109,9.096,7.606
0.878,7.53,9.235,7.612
0.607,7.272,6.95,7.698
0.565,5.839,5.752,7.7
-0.029,5.915,6.166,7.701
-0.666,7.265,7.612,7.703
-0.494,8.076,8.314,7.705
0.518,8.429,8.542,7.798
0.63,7.481,8.369,7.8
0.645,6.822,7.304,7.801
0.408,5.768,6.385,7.809
0.538,5.35,5.754,7.81
1.158,6.218,4.973,7.899
1.163,6.563,5.521,7.9
1.274,6.834,5.678,7.906
1.458,7.598,5.633,7.908
1.247,8.047,5.516,7.91
0.47,8.692,4.445,8.003
0.481,8.745,4.228,8.004
0.562,8.591,4.057,8.006
0.845,8.711,3.732,8.008
0.881,8.845,3.628,8.018
-0.678,9.226,3.166,8.099
-0.525,9.384,3.124,8.1
-0.349,9.132,3.052,8.106
-0.235,9.116,2.696,8.108
-0.415,9.416,2.456,8.11
0.964,9.766,3.304,8.199
0.928,10.332,4.408,8.2
1.019,11.655,5.472,8.202
1.242,11.66,6.038,8.204
1.506,9.026,5.042,8.209
-0.268,7.895,3.695,8.298
-1.384,9.147,4.347,8.3
-2.546,11.221,5.061,8.302
-2.212,11.305,5.165,8.303
-1.302,10.674,4.194,8.305
0.139,10.804,1.796,8.399
0.141,10.094,1.606,8.402
0.3,8.8,1.6,8.404
1.206,7.71,0.977,8.413
0.367,7.267,2.433,8.421
0.544,7.56,2.779,8.498
0.279,7.698,3.005,8.5
0.321,7.702,3.095,8.505
0.586,7.365,2.77,8.507
0.202,7.262,1.565,8.598
0.483,6.926,1.251,8.6
0.578,6.322,1.089,8.602
0.373,5.518,1.127,8.607
0.021,5.197,1.379,8.608
-0.317,5.826,1.551,8.703
-0.392,6.646,1.659,8.704
-0.077,6.959,1.543,8.706
0.053,7.002,1.581,8.708
-0.223,7.441,1.757,8.709
-1.048,7.77,2.93,8.798
-1.222,8.356,2.844,8.807
-2.059,10.048,3.152,8.809
-4.211,13.878,3.922,8.818
-5.985,17.963,4.737,8.82
-0.911,17.347,7.817,8.898
1.425,12.181,5.713,8.9
1.97,9.192,4.645,8.902
0.792,12.498,5.711,8.904
-0.057,15.736,7.285,8.906
0.484,13.778,4.422,8.999
2.473,10.437,2.663,9.0
3.129,8.053,0.947,9.007
2.784,6.578,-0.178,9.008
1.608,7.061,-0.361,9.01
1.149,6.955,0.345,9.098
1.829,5.453,0.647,9.1
2.722,3.892,0.908,9.102
2.839,3.704,1.296,9.103
2.043,6.184,1.916,9.105
2.552,7.895,3.564,9.198
2.572,8.008,4.404,9.2
1.231,9.043,3.857,9.214
0.92,10.102,3.898,9.216
0.684,10.878,3.522,9.218
0.931,11.043,2.857,9.298
0.949,10.955,2.345,9.299
0.969,10.457,1.943,9.301
0.545,10.275,1.725,9.303
-0.341,11.006,2.194,9.304
-0.98,12.802,2.898,9.398
-0.888,14.441,3.459,9.4
-0.461,13.804,3.896,9.402
0.082,12.188,3.412,9.403
-0.759,10.494,3.206,9.41
-2.957,12.189,4.829,9.498
-3.689,14.832,5.432,9.5
-1.743,12.411,5.071,9.501
0.093,9.558,3.878,9.503
0.044,8.753,3.533,9.505
-0.238,8.026,3.586,9.598
1.338,6.409,3.243,9.617
1.7,5.3,2.9,9.619
1.915,5.004,2.977,9.62
2.038,5.309,2.643,9.622
1.735,5.637,1.226,9.73
1.558,5.395,1.209,9.732
0.626,5.701,0.84,9.734
0.107,6.166,1.026,9.735
-0.096,6.623,0.929,9.737
-0.186,6.621,2.541,9.799
0.951,6.838,3.374,9.801
0.93,7.208,3.555,9.803
1.043,7.436,3.985,9.804
1.413,7.828,4.33,9.806
1.577,8.094,4.634,9.808
1.611,8.353,4.883,9.926
1.202,9.875,5.647,9.928
0.847,13.087,6.779,9.93
0.275,16.719,8.187,9.931
0.684,18.998,6.821,10.0
1.618,15.258,5.71,10.001
2.155,11.128,4.16,10.003
2.07,10.452,2.873,10.005
1.211,12.735,2.586,10.006
-0.331,12.857,1.543,10.011
0.888,10.759,1.341,10.097
1.488,9.359,0.841,10.099
1.841,7.694,0.906,10.1
1.943,6.284,1.016,10.105
2.066,5.142,2.051,10.197
1.594,4.774,2.858,10.199
1.555,4.889,3.668,10.201
2.196,4.749,3.806,10.202
2.532,4.783,3.002,10.298
2.883,5.321,2.275,10.3
2.753,6.613,3.321,10.301
2.106,7.726,4.342,10.307
2.03,7.608,4.355,10.309
1.214,7.931,3.169,10.423
0.747,9.165,3.135,10.425
0.222,10.592,3.008,10.426
-0.086,10.331,2.769,10.428
-0.451,10.055,2.745,10.43
-1.0,13.2,3.2,10.5
-1.718,15.288,3.812,10.502
-1.004,15.22,4.18,10.507
-0.565,15.824,3.876,10.508
-0.692,13.761,3.739,10.51
-1.349,13.945,3.255,10.512
-2.625,14.084,4.824,10.598
-1.0,10.9,4.0,10.6
-0.204,8.747,3.087,10.605
-0.243,8.211,3.071,10.607
-0.313,7.542,3.162,10.723
-0.032,6.505,2.905,10.725
0.142,6.026,2.926,10.726
0.231,5.832,2.992,10.728
0.616,5.547,2.847,10.74
0.815,4.884,2.744,10.799
0.625,4.416,2.676,10.801
0.302,4.826,2.806,10.802
0.188,5.205,2.865,10.804
0.429,5.168,2.888,10.806
0.192,5.295,2.975,10.807
-0.366,5.921,3.301,10.921
-0.621,6.637,3.637,10.923
-0.517,7.389,3.749,10.929
-0.333,7.542,3.802,10.931
-0.24,7.8,3.68,10.999
-1.185,10.384,4.244,11.001
-3.02,15.0,5.64,11.004
-1.17,19.708,8.655,11.006
0.247,19.187,8.279,11.011
2.925,12.681,5.913,11.013
2.508,10.202,4.689,11.121
0.474,13.343,5.44,11.122
-0.333,17.219,4.777,11.136
1.024,14.903,3.868,11.137
1.6,11.3,1.8,11.199
3.491,8.521,1.245,11.201
3.227,6.836,0.765,11.202
2.542,6.438,1.143,11.204
1.859,6.718,1.788,11.206
1.992,6.099,2.011,11.211
2.275,5.119,2.287,11.321
2.849,3.862,1.826,11.323
2.874,2.743,1.74,11.325
2.042,3.36,2.538,11.326
1.34,5.185,3.591,11.426
1.649,6.562,4.126,11.428
2.504,6.751,3.894,11.43
2.821,7.13,3.819,11.432
2.392,7.698,4.211,11.434
1.723,8.006,4.666,11.436
1.624,8.303,3.768,11.523
1.302,9.056,4.031,11.533
0.839,11.227,5.081,11.535
1.408,15.301,6.089,11.536
-0.598,16.09,5.51,11.545
1.295,14.609,3.469,11.598
-0.024,14.998,2.783,11.599
-1.571,16.494,2.348,11.601
-1.782,19.611,1.286,11.609
-0.861,18.058,0.765,11.612
-0.515,12.664,-0.643,11.723
-0.051,10.042,-0.834,11.73
0.045,9.108,-0.97,11.731
0.24,8.057,-0.674,11.733
0.351,7.258,0.034,11.828
0.653,6.675,0.502,11.83
1.023,6.204,0.915,11.832
1.375,5.679,1.017,11.833
1.204,5.034,1.136,11.835
0.783,5.047,1.189,11.837
0.232,5.586,1.534,11.923
0.2,6.2,1.2,11.925
0.569,5.995,0.698,11.926
0.596,5.477,0.671,11.928
0.347,5.398,0.819,11.933
-0.026,5.699,0.96,12.031
-0.239,5.948,1.139,12.034
-0.288,6.57,1.388,12.035
0.94,6.185,3.491,12.124
0.847,6.287,3.879,12.125
0.353,7.513,4.521,12.127
-0.47,10.708,5.855,12.129
-0.998,15.375,7.747,12.13
-0.783,18.779,9.325,12.132
1.074,16.643,9.04,12.223
2.962,11.091,6.957,12.229
2.477,10.494,5.634,12.231
0.504,14.451,6.494,12.232
-0.826,16.443,7.74,12.234
0.898,14.944,5.269,12.243
1.591,12.79,1.301,12.322
2.786,10.144,-0.259,12.323
3.24,7.704,-0.964,12.325
2.315,7.247,-0.532,12.327
2.169,7.231,2.386,12.423
2.265,6.035,2.747,12.424
2.625,4.375,2.855,12.426
3.227,3.073,2.675,12.428
3.482,2.018,2.824,12.43
3.129,1.971,3.094,12.497
2.431,3.269,3.814,12.499
2.249,4.851,4.59,12.501
2.586,6.014,4.863,12.503
2.918,6.882,5.076,12.506
3.278,8.222,5.484,12.596
3.684,9.816,6.143,12.598
3.794,10.406,6.241,12.608
3.573,10.127,6.125,12.609
-0.365,14.724,4.776,12.723
-2.225,18.427,4.973,12.724
-2.143,16.616,4.584,12.726
-1.216,14.578,3.522,12.728
-2.047,16.335,4.265,12.729
0.799,18.486,6.973,12.824
-1.182,17.942,6.775,12.829
-0.536,13.756,5.431,12.831
0.155,11.305,4.184,12.833
0.4,9.88,3.16,12.834
1.155,7.505,2.584,12.836
2.185,4.841,2.676,12.922
3.424,3.569,1.622,12.928
3.645,3.594,1.824,12.93
3.561,4.073,2.006,12.932
3.629,4.014,1.643,12.933
3.796,3.455,1.38,13.022
3.684,3.32,1.518,13.03
3.155,3.506,1.776,13.031
2.57,4.081,0.863,13.046
2.859,3.737,0.774,13.049
3.448,3.393,0.985,13.122
4.415,3.759,1.019,13.124
4.53,4.119,1.237,13.126
4.567,4.567,1.533,13.127
4.381,5.626,2.452,13.129
2.6,9.018,2.429,13.222
2.433,12.98,1.445,13.223
2.567,17.731,-0.592,13.225
2.667,19.061,-1.81,13.231
3.9,15.112,-1.347,13.233
1.544,13.08,-3.108,13.322
-1.252,13.96,-4.336,13.324
-1.68,13.8,-5.74,13.325
-0.508,11.64,-5.844,13.327
-0.24,9.3,-6.82,13.329
-1.237,6.817,-8.114,13.422
-0.682,5.991,-7.443,13.423
0.128,5.54,-6.701,13.433
0.752,5.358,-6.01,13.435
1.256,5.58,-4.902,13.436
2.236,5.62,-3.352,13.522
2.384,5.38,-1.988,13.523
1.779,5.096,-0.062,13.532
0.801,5.464,0.962,13.534
0.063,7.011,1.186,13.536
0.055,8.601,0.49,13.622
0.737,9.089,-0.186,13.623
1.316,8.285,-0.448,13.625
0.95,8.218,-0.481,13.627
0.023,9.231,-0.714,13.628
0.09,9.198,-1.381,13.722
1.083,8.151,-1.814,13.723
1.141,8.344,-2.238,13.725
0.922,9.668,-2.776,13.727
1.303,9.691,-3.114,13.728
0.36,11.02,-2.9,13.821
0.742,14.278,-1.471,13.831
-0.558,18.678,-2.071,13.832
-0.898,18.978,-2.451,13.834
-0.561,14.849,-4.882,13.922
-0.581,12.425,-6.091,13.923
-0.695,12.016,-6.916,13.925
-0.293,12.954,-6.588,13.927
1.123,12.602,-4.935,13.928
3.771,10.772,-2.562,14.022
4.001,8.76,-1.674,14.023
3.585,7.306,-0.794,14.025
2.799,6.64,-0.026,14.027
2.47,5.712,0.512,14.028
2.489,4.711,0.756,14.122
2.796,3.544,0.402,14.125
2.702,2.778,0.249,14.126
2.391,2.289,0.404,14.128
1.616,2.244,0.642,14.13
0.451,3.289,0.824,14.222
0.325,5.019,1.18,14.24
0.711,6.544,1.111,14.241
1.634,7.51,0.953,14.243
2.933,8.133,0.833,14.244
3.257,10.199,0.475,14.322
2.4,15.6,0.0,14.324
0.425,23.619,-1.32,14.325
1.105,24.484,-1.304,14.327
3.928,17.749,-0.463,14.329
3.375,13.781,0.02,14.427
1.27,16.197,-3.576,14.428
-1.013,21.002,-3.749,14.43
0.437,18.84,-1.09,14.432
3.728,11.449,-0.263,14.433
4.648,8.485,0.221,14.522
4.143,7.701,1.525,14.524
2.984,7.172,1.893,14.525
2.391,6.309,1.827,14.527
1.733,5.133,1.433,14.529
0.576,4.82,-0.732,14.627
0.24,5.2,-0.68,14.628
-0.06,5.5,-0.58,14.63
0.104,5.48,-0.528,14.632
-0.12,5.6,-0.16,14.633
-1.137,7.67,-1.206,14.721
-2.599,11.408,-2.835,14.723
-2.295,14.141,-3.974,14.728
-0.229,13.836,-3.884,14.73
1.252,12.271,-2.987,14.731
-0.879,10.715,-6.485,14.822
-1.582,9.927,-6.273,14.823
-1.259,8.568,-5.066,14.825
-1.533,8.333,-4.867,14.827
-2.243,8.907,-6.126,14.829
0.037,7.086,-8.272,14.922
1.099,5.713,-7.126,14.923
1.547,5.145,-6.59,14.925
1.372,5.398,-6.996,14.927
0.523,4.969,-8.008,14.936
0.298,2.143,-9.157,14.999
0.398,2.543,-8.857,15.001
-0.11,3.316,-8.784,15.002
-0.433,3.933,-8.667,15.004
-0.737,4.12,-8.78,15.006
0.422,2.589,-9.678,15.12
0.651,3.044,-9.669,15.121
0.909,3.356,-9.751,15.123
1.722,2.351,-10.422,15.224
1.831,2.72,-10.531,15.225
1.725,3.078,-10.525,15.227
1.469,3.28,-10.469,15.229
1.218,3.124,-10.518,15.23
1.018,2.424,-10.518,15.232
0.869,1.88,-10.669,15.233
-1.077,-1.421,-10.857,15.322
-0.815,-1.568,-10.955,15.323
-0.435,-1.668,-11.115,15.325
-0.657,-4.366,-10.011,15.335
-1.148,-4.265,-9.79,15.336
0.071,-4.017,-10.018,15.422
0.308,-3.969,-9.98,15.423
0.503,-3.587,-10.106,15.425
1.108,-2.569,-11.48,15.427
1.996,-1.818,-13.226,15.428
1.757,-3.329,-13.886,15.546
1.312,-2.363,-14.518,15.552
0.929,-2.214,-14.543,15.554
1.788,-3.737,-13.582,15.556
4.787,-5.787,-12.672,15.624
5.316,-4.616,-12.68,15.625
5.572,-4.172,-12.027,15.627
6.144,-3.944,-12.054,15.629
7.179,-3.979,-11.149,15.63
6.54,-4.44,-9.684,15.632
5.41,-4.51,-9.775,15.634
3.714,-6.698,-8.811,15.723
4.771,-7.404,-7.078,15.734
6.2,-7.931,-5.146,15.736
5.239,-9.167,-1.89,15.822
4.108,-7.833,-1.398,15.824
2.899,-6.909,-0.978,15.826
4.856,-6.753,-0.318,15.827
5.154,-7.07,0.525,15.832
3.682,-7.073,2.227,15.922
4.538,-6.427,2.233,15.923
4.829,-5.864,1.696,15.925
4.033,-4.509,1.271,15.926
3.6,-3.8,1.8,15.931
3.705,-3.818,2.062,16.022
3.302,-4.273,1.887,16.024
2.918,-3.927,1.073,16.026
3.611,-3.336,0.224,16.027
2.913,-2.409,0.111,16.029
1.907,-2.691,0.649,16.122
2.149,-3.564,-0.044,16.123
3.271,-4.436,-1.396,16.133
3.091,-5.136,-2.136,16.134
1.431,-9.936,-4.016,16.143
0.469,-55.864,-0.784,16.221
-6.858,5.827,-1.493,16.223
-3.191,0.136,17.336,16.225
17.442,-8.773,2.907,16.226
8.402,-5.173,0.687,16.228
9.83,-9.856,-1.201,16.321
6.672,-6.77,3.382,16.323
5.669,-8.181,3.811,16.324
5.361,-8.276,2.988,16.326
7.419,-9.562,4.106,16.327
8.394,-8.521,4.958,16.421
10.565,-11.228,4.35,16.423
4.163,-10.102,9.169,16.425
3.724,-7.078,11.257,16.426
10.907,-11.142,3.032,16.428
4.705,-7.516,2.951,16.523
8.595,-5.482,3.338,16.533
9.098,-5.927,0.813,16.535
9.069,-5.864,1.516,16.537
6.391,-5.632,3.087,16.546
4.293,-4.658,4.368,16.621
3.95,-4.882,3.695,16.623
4.206,-5.479,2.842,16.625
3.633,-5.446,2.87,16.626
3.283,-6.164,2.975,16.631
2.94,-6.387,2.302,16.721
3.967,-8.154,1.83,16.727
3.03,-8.756,2.299,16.729
2.472,-8.47,2.682,16.731
2.799,-8.137,2.91,16.732
3.386,-7.917,3.236,16.821
5.035,-9.172,4.15,16.823
5.229,-9.393,4.809,16.825
5.207,-9.242,4.532,16.826
5.983,-9.727,4.565,16.828
6.611,-10.294,4.493,16.921
7.017,-9.773,5.035,16.923
6.056,-8.26,5.037,16.925
5.16,-6.813,4.998,16.926
5.08,-6.275,4.504,16.928
6.047,-7.169,2.491,17.021
5.285,-8.002,3.718,17.023
4.582,-8.427,3.873,17.025
4.118,-7.673,3.127,17.026
3.896,-6.725,2.655,17.028
3.956,-6.805,2.255,17.122
3.202,-8.052,0.444,17.124
2.697,-7.871,0.834,17.126
2.349,-8.086,1.917,17.132
2.41,-7.638,1.841,17.133
1.71,-7.862,2.319,17.221
1.061,-9.376,3.002,17.222
0.618,-10.348,2.316,17.224
1.787,-11.533,2.993,17.226
2.101,-10.876,4.222,17.321
2.562,-10.052,3.924,17.323
2.969,-9.386,3.577,17.328
3.811,-9.414,3.963,17.33
4.337,-9.371,3.854,17.331
5.82,-9.2,2.26,17.421
5.331,-9.514,3.823,17.423
4.247,-10.033,5.273,17.424
3.664,-9.805,4.568,17.426
4.307,-8.733,2.853,17.432
5.21,-7.727,2.167,17.522
3.949,-8.037,3.133,17.524
3.175,-8.569,2.967,17.525
2.451,-8.863,2.767,17.532
2.012,-8.553,2.8,17.534
1.665,-8.141,2.8,17.622
1.504,-7.451,2.667,17.624
1.514,-7.078,2.933,17.625
1.661,-6.59,3.033,17.627
0.998,-7.148,2.656,17.646
0.125,-7.745,2.408,17.722
-0.396,-8.361,3.063,17.724
-0.978,-8.884,3.145,17.727
-1.657,-9.269,3.19,17.733
-1.825,-10.355,3.592,17.735
-1.006,-9.059,3.906,17.821
0.969,-8.714,4.398,17.823
3.012,-9.082,3.388,17.825
3.449,-10.11,2.984,17.826
2.457,-11.031,3.71,17.828
3.413,-9.867,3.607,17.948
3.501,-9.776,3.422,17.95
3.528,-9.91,4.235,17.956
3.241,-10.476,4.742,17.958
2.837,-9.271,3.354,17.96
3.909,-7.886,1.997,18.022
3.871,-6.514,2.543,18.026
3.005,-6.481,3.61,18.028
2.343,-7.429,2.886,18.038
2.225,-8.181,2.57,18.04
1.024,-8.505,4.548,18.042
1.77,-9.503,2.673,18.121
1.754,-9.841,1.195,18.123
3.034,-9.509,-0.39,18.125
3.319,-8.489,-0.092,18.126
2.135,-8.635,1.377,18.221
2.035,-8.735,1.377,18.223
2.191,-8.991,1.381,18.228
2.491,-9.391,1.581,18.229
2.888,-9.388,1.293,18.232
1.835,-10.573,0.578,18.321
1.786,-10.703,1.162,18.323
1.427,-11.095,2.176,18.324
1.414,-11.697,1.938,18.326
1.598,-11.36,1.788,18.328
1.654,-11.289,2.151,18.421
2.15,-10.71,1.328,18.423
1.93,-11.354,1.543,18.433
0.65,-11.59,2.172,18.434
0.944,-9.971,1.837,18.436
4.131,-7.74,2.204,18.521
3.971,-7.445,1.55,18.523
3.29,-7.934,1.358,18.524
2.756,-9.125,1.548,18.533
2.114,-9.577,1.225,18.535
0.994,-9.404,1.164,18.622
0.938,-9.678,0.916,18.623
1.655,-9.983,0.971,18.625
1.944,-9.675,1.452,18.626
2.125,-8.086,1.344,18.633
2.009,-7.173,1.891,18.722
2.772,-7.829,2.784,18.723
2.713,-9.883,2.265,18.725
1.365,-9.462,2.08,18.731
0.728,-8.871,3.416,18.732
0.633,-10.567,2.633,18.821
-0.02,-10.296,3.986,18.839
0.257,-9.831,5.01,18.84
1.675,-9.655,3.892,18.842
2.839,-9.908,2.627,18.844
2.349,-8.27,0.516,18.922
3.886,-10.483,0.906,18.924
-2.75,-8.51,9.528,18.93
-4.124,-10.365,6.192,18.937
1.296,-12.962,-3.602,19.021
-0.445,-11.198,-1.072,19.022
-3.111,-10.204,1.445,19.024
1.921,-8.991,-1.789,19.03
1.372,-8.951,-0.464,19.032
3.572,-10.251,-0.064,19.121
1.462,-9.355,1.781,19.129
1.013,-8.915,0.706,19.131
1.928,-7.449,-0.536,19.133
1.017,-7.453,1.509,19.134
1.355,-7.498,0.828,19.221
0.491,-7.423,0.996,19.239
-0.004,-8.362,1.898,19.24
0.37,-8.732,1.785,19.242
0.532,-8.687,1.466,19.244
0.716,-9.357,2.605,19.321
0.953,-9.669,2.795,19.322
1.216,-9.557,2.705,19.324
2.218,-10.396,1.917,19.329
2.508,-11.378,2.203,19.331
2.183,-11.823,3.139,19.421
1.762,-11.068,3.854,19.422
2.453,-10.269,3.095,19.424
3.169,-10.926,2.701,19.426
2.799,-11.98,2.744,19.427
1.984,-11.643,1.895,19.521
1.603,-10.659,1.568,19.522
1.952,-9.35,1.34,19.524
1.625,-8.655,1.364,19.526
0.727,-7.995,1.676,19.527
1.615,-8.73,1.896,19.621
1.219,-9.237,1.97,19.622
0.444,-8.689,1.989,19.624
-0.23,-8.141,2.407,19.63
0.181,-7.763,1.93,19.632
0.049,-7.47,1.016,19.72
0.712,-7.458,0.526,19.722
0.433,-7.733,1.367,19.723
0.315,-8.137,1.85,19.73
0.437,-8.513,2.29,19.731
0.763,-9.187,2.51,19.821
1.113,-9.777,2.682,19.823
1.026,-10.975,2.82,19.825
1.054,-10.589,2.051,19.826
1.36,-10.628,2.342,19.828
2.156,-10.729,2.763,19.922
3.058,-10.668,2.475,19.924
2.761,-10.748,2.398,19.926
1.747,-10.931,2.205,19.927
1.012,-11.558,2.826,19.938
0.832,-11.194,2.755,20.021
1.25,-9.59,2.872,20.022
1.885,-8.063,2.75,20.024
2.124,-8.035,2.708,20.029
1.85,-8.41,2.328,20.031
2.389,-8.978,2.178,20.122
1.859,-8.519,2.085,20.124
1.304,-7.307,1.874,20.125
0.985,-8.07,2.504,20.127
0.707,-8.315,2.448,20.128
0.956,-8.311,1.911,20.221
0.974,-7.448,1.981,20.222
1.548,-7.396,1.763,20.224
1.963,-7.726,1.859,20.23
1.97,-8.341,2.007,20.232
1.574,-9.248,2.581,20.321
1.196,-9.993,3.426,20.322
0.919,-10.237,3.37,20.324
1.396,-10.893,3.326,20.335
2.367,-11.433,3.733,20.338
-0.047,-11.518,3.513,20.42
0.778,-11.355,3.098,20.422
0.84,-11.2,3.62,20.424
0.842,-10.745,3.562,20.427
1.067,-11.082,3.347,20.428
3.641,-11.481,4.415,20.521
2.578,-11.556,3.756,20.523
2.03,-9.859,2.993,20.526
2.459,-8.219,2.085,20.528
2.6,-8.1,2.3,20.621
2.033,-8.167,3.267,20.622
1.615,-8.63,3.796,20.633
1.007,-8.315,3.648,20.635
0.57,-7.841,3.207,20.638
0.344,-8.489,2.689,20.721
0.411,-8.722,2.122,20.723
0.681,-8.163,1.73,20.724
1.437,-7.474,1.041,20.738
1.663,-7.526,1.759,20.74
0.901,-7.995,2.192,20.82
0.839,-8.004,2.547,20.822
0.464,-9.482,2.728,20.832
-0.086,-10.53,2.974,20.834
0.295,-10.323,3.242,20.837
-0.489,-10.973,4.151,20.92
0.636,-11.309,4.136,20.922
0.975,-11.464,4.315,20.924
0.916,-11.109,4.676,20.93
1.238,-10.355,3.878,20.931
1.878,-10.155,3.398,21.02
2.171,-10.073,3.531,21.023
1.344,-10.491,3.504,21.031
0.978,-9.955,2.698,21.033
0.72,-8.8,3.46,21.035
0.82,-7.0,3.26,21.129
0.793,-6.818,3.133,21.13
0.064,-8.091,2.964,21.14
-0.936,-8.591,2.464,21.142
-1.767,-9.018,3.053,21.143
-0.349,-8.944,1.391,21.195
0.336,-7.922,0.516,21.197
0.569,-7.556,1.149,21.199
0.513,-8.333,2.093,21.205
0.396,-7.922,2.436,21.207
0.387,-7.467,2.207,21.319
0.233,-7.033,1.633,21.321
-0.011,-6.556,1.589,21.322
-0.369,-6.744,1.751,21.324
-0.498,-7.289,2.682,21.422
-0.122,-8.811,2.478,21.424
-0.796,-9.778,2.764,21.431
-1.413,-10.367,4.107,21.433
-0.791,-11.256,4.629,21.435
-0.767,-10.933,4.133,21.438
-0.449,-10.744,4.191,21.52
1.518,-10.026,3.186,21.53
1.449,-9.224,1.829,21.531
2.193,-8.647,1.733,21.533
1.213,-8.007,3.033,21.54
0.364,-8.116,5.278,21.62
-0.967,-12.767,4.633,21.622
-2.102,-12.382,2.311,21.624
-1.496,-11.136,1.278,21.625
-1.509,-10.729,0.744,21.627
1.743,-8.869,-0.794,21.72
1.719,-7.984,1.185,21.723
1.824,-7.885,2.021,21.725
1.757,-7.951,0.554,21.726
1.457,-9.331,-0.106,21.728
0.381,-9.416,0.015,21.82
-0.652,-8.93,0.422,21.822
-0.271,-8.666,-0.303,21.823
1.824,-6.491,-3.584,21.825
1.935,-6.564,-3.315,21.827
1.383,-7.294,-2.766,21.92
1.662,-9.311,-1.523,21.922
2.036,-9.451,-2.672,21.923
2.126,-10.46,-3.251,21.925
1.698,-10.762,-1.996,21.927
1.811,-8.691,-2.821,22.02
1.664,-8.949,-6.128,22.022
-0.609,-10.747,-1.583,22.023
2.637,-8.396,-5.639,22.039
1.655,-6.778,-6.516,22.046
-1.495,-6.596,-6.144,22.12
1.168,-6.285,-7.155,22.122
3.668,-6.445,-8.275,22.123
4.621,-7.783,-8.877,22.13
3.984,-10.573,-8.087,22.131
3.958,-8.298,-9.955,22.219
3.593,-7.013,-8.918,22.228
4.175,-4.495,-10.264,22.23
3.292,-3.531,-8.433,22.231
2.982,-3.971,-7.5,22.32
2.437,-4.851,-7.367,22.322
2.708,-4.769,-7.367,22.323
2.647,-4.812,-7.0,22.325
3.816,-4.037,-7.233,22.33
2.943,-1.171,-8.314,22.42
2.244,-1.095,-7.492,22.422
2.156,-1.005,-7.308,22.425
3.076,-1.205,-7.748,22.427
2.881,-1.524,-7.738,22.43
2.238,-2.252,-7.524,22.52
3.21,-0.862,-9.259,22.522
0.939,-2.976,-8.002,22.523
1.806,-2.443,-8.069,22.527
2.966,-1.243,-9.189,22.53
1.075,-3.581,-8.67,22.621
1.935,-2.181,-8.19,22.622
1.702,-3.148,-7.556,22.628
2.408,-2.79,-8.425,22.63
2.794,-1.857,-9.131,22.641
1.988,-1.718,-9.563,22.72
1.465,-1.502,-10.196,22.722
0.949,-2.927,-11.047,22.723
-0.945,-4.467,-12.665,22.725
-0.106,-3.659,-13.082,22.727
2.278,-1.255,-12.582,22.825
1.888,0.624,-10.808,22.831
3.241,1.418,-8.606,22.833
6.037,2.827,-7.776,22.834
7.337,4.127,-8.276,22.836
7.562,2.659,-9.41,22.92
6.038,2.301,-10.37,22.922
6.733,3.673,-9.953,22.924
6.2,2.22,-9.46,22.925
6.005,2.508,-8.256,22.928
5.981,2.09,-8.135,23.028
5.767,1.907,-7.487,23.029
2.043,1.949,-9.646,23.031
2.961,2.963,-6.896,23.041
3.782,0.388,-7.088,23.043
1.635,3.782,-10.587,23.12
5.214,5.125,-8.203,23.121
4.666,3.579,-6.153,23.123
5.521,3.957,-5.484,23.126
6.869,3.664,-6.174,23.128
6.151,4.09,-6.588,23.22
5.39,2.902,-7.322,23.221
4.753,2.269,-7.763,23.223
5.392,2.682,-8.098,23.225
6.31,3.798,-8.078,23.226
5.884,5.818,-5.62,23.321
6.022,4.212,-4.147,23.322
5.645,4.024,-9.094,23.329
4.218,1.792,-8.502,23.331
3.09,3.649,-5.788,23.332
0.59,6.449,-5.188,23.42
6.506,6.731,-5.967,23.421
3.72,6.477,-7.834,23.441
1.716,4.827,-12.019,23.443
2.914,4.002,-11.961,23.445
5.578,4.209,-10.518,23.521
5.033,5.287,-8.673,23.523
5.189,8.024,-3.949,23.525
4.467,5.693,-4.687,23.53
4.089,4.984,-5.669,23.531
2.555,6.571,-6.474,23.62
2.015,6.276,-6.809,23.621
2.106,5.061,-6.932,23.623
2.402,5.054,-7.044,23.625
2.702,5.354,-7.344,23.626
2.44,6.7,-6.92,23.72
2.651,6.211,-7.276,23.721
2.702,6.922,-8.251,23.723
2.209,6.989,-9.704,23.725
1.884,7.044,-10.142,23.726
1.513,7.833,-10.407,23.823
1.487,6.667,-8.593,23.833
1.96,5.6,-8.28,23.834
2.293,5.933,-9.947,23.836
2.068,9.981,-10.133,23.925
0.595,9.657,-9.902,23.926
0.563,8.138,-7.035,23.928
2.147,6.188,-4.681,23.93
2.758,4.555,-4.117,23.931
1.563,6.538,-5.235,24.021
-0.253,7.288,-6.981,24.026
-0.884,7.369,-6.914,24.028
-1.179,6.013,-6.412,24.029
-1.074,5.616,-5.689,24.031
-1.1,6.76,-5.68,24.121
-1.521,6.627,-5.608,24.122
-0.495,6.403,-4.178,24.124
0.316,6.169,-4.314,24.126
0.347,6.268,-5.621,24.127
0.558,6.195,-5.637,24.22
0.879,5.847,-6.068,24.229
0.213,6.681,-6.143,24.232
-0.134,7.451,-6.453,24.235
-0.285,7.728,-6.983,24.237
0.079,8.032,-6.796,24.321
0.211,8.334,-6.902,24.323
0.187,8.219,-7.257,24.324
0.23,8.255,-7.666,24.332
0.511,8.234,-7.002,24.333
1.207,9.286,-4.819,24.42
1.295,10.01,-5.672,24.421
-0.287,11.774,-7.292,24.424
-1.631,11.161,-7.388,24.43
-1.007,9.214,-6.081,24.432
0.542,7.217,-5.213,24.519
1.18,6.94,-5.089,24.521
0.587,7.326,-5.608,24.528
0.033,8.035,-5.603,24.53
-0.353,7.807,-6.141,24.532
-0.658,7.117,-6.113,24.621
-0.447,6.093,-5.459,24.632
-0.109,5.818,-4.99,24.634
-0.07,6.141,-4.466,24.636
-0.433,6.465,-4.697,24.637
-0.761,6.123,-4.576,24.721
-0.776,5.852,-3.893,24.723
-0.401,6.102,-3.654,24.725
-0.298,6.596,-4.291,24.726
-0.466,7.133,-5.049,24.728
-0.41,7.22,-5.145,24.823
-0.002,8.404,-5.809,24.825
-0.579,9.358,-7.156,24.827
-2.468,8.837,-6.657,24.828
0.061,9.177,-6.424,24.83
-2.15,10.601,-7.577,24.919
0.67,9.859,-7.634,24.921
0.052,8.495,-8.714,24.923
2.17,10.959,-5.234,24.931
3.071,10.957,-9.079,24.941
1.517,11.066,-6.874,25.022
-0.45,10.501,-6.877,25.024
-0.321,8.242,-6.144,25.027
0.592,6.916,-4.936,25.028
1.21,6.48,-4.655,25.03
2.165,5.839,-4.912,25.12
0.769,8.622,-5.676,25.121
-0.814,8.357,-5.529,25.126
-0.959,7.537,-5.033,25.13
-1.245,7.48,-4.404,25.132
-1.006,6.624,-4.055,25.219
-1.057,7.429,-4.514,25.221
-1.367,7.169,-4.106,25.222
-1.212,6.649,-3.51,25.228
-0.537,6.847,-3.631,25.23
-0.394,7.176,-5.445,25.319
-0.994,8.476,-5.345,25.321
-1.082,8.327,-5.335,25.323
0.176,8.198,-5.22,25.332
1.722,8.61,-5.498,25.342
-0.321,9.642,-6.644,25.419
-0.443,9.585,-6.142,25.421
0.365,9.569,-6.306,25.423
0.714,9.772,-6.438,25.424
0.637,9.527,-6.185,25.427
0.946,10.009,-6.295,25.519
0.775,9.95,-6.761,25.52
-0.003,10.006,-7.063,25.528
-0.746,8.591,-6.805,25.53
0.03,7.141,-5.166,25.621
0.986,6.728,-4.562,25.622
0.355,7.489,-4.45,25.629
-0.938,7.975,-4.769,25.631
-1.696,7.892,-5.082,25.633
-1.631,7.361,-4.588,25.719
-0.955,6.811,-3.65,25.721
-0.637,6.973,-3.315,25.727
1.056,6.589,-4.389,25.736
0.674,5.834,-3.971,25.738
-0.698,5.896,-3.391,25.819
-0.052,7.205,-3.386,25.821
0.005,7.59,-3.628,25.826
-0.075,8.35,-4.339,25.827
-0.501,8.902,-5.754,25.829
-0.418,8.136,-5.88,25.919
0.266,8.867,-5.751,25.921
0.589,9.322,-6.399,25.922
0.734,9.633,-6.449,25.924
0.78,10.04,-6.989,25.926
0.489,10.222,-7.099,26.019
0.309,9.982,-7.11,26.021
1.241,10.119,-7.167,26.022
1.086,11.528,-8.062,26.024
-0.455,12.711,-6.75,26.026
-0.788,10.676,-5.147,26.119
0.1,7.6,-4.5,26.121
0.8,6.1,-4.2,26.138
0.605,6.09,-4.428,26.14
0.892,8.633,-4.473,26.143
-0.106,8.724,-4.855,26.22
-0.455,7.92,-4.896,26.222
-0.616,7.065,-5.047,26.224
-0.837,6.747,-4.731,26.226
-0.935,7.539,-3.812,26.227
-0.455,6.72,-3.796,26.319
0.022,6.01,-3.198,26.321
0.278,6.29,-2.802,26.326
0.257,6.771,-3.786,26.328
0.031,7.378,-4.724,26.329
-1.212,7.624,-5.353,26.419
-1.014,7.628,-5.962,26.421
-1.182,8.164,-6.72,26.424
-0.865,9.131,-6.594,26.426
-0.051,10.403,-6.732,26.429
0.204,10.292,-6.682,26.519
0.377,9.846,-6.152,26.529
0.881,9.438,-6.435,26.53
1.176,9.048,-6.407,26.532
0.455,9.489,-6.95,26.534
-0.998,8.696,-7.691,26.619
0.716,8.521,-5.357,26.621
1.737,7.613,-4.064,26.622
2.504,6.881,-3.566,26.634
1.485,7.475,-3.235,26.635
0.235,8.727,-3.889,26.72
-0.365,8.427,-3.989,26.721
-0.307,7.337,-3.067,26.732
0.092,6.342,-3.076,26.734
-0.393,6.863,-3.233,26.735
-0.833,8.164,-3.294,26.824
-1.023,7.817,-3.41,26.826
-0.858,6.79,-2.421,26.827
-0.783,6.316,-2.249,26.829
-0.768,6.741,-3.114,26.832
-0.114,7.87,-3.426,26.919
0.359,8.706,-3.77,26.92
0.607,8.467,-4.241,26.922
0.83,8.45,-4.731,26.924
1.152,8.638,-4.529,26.925
1.438,9.508,-4.755,27.022
1.337,10.013,-5.064,27.024
1.264,9.782,-5.028,27.026
1.04,9.799,-4.538,27.027
0.415,10.425,-4.865,27.029
2.574,9.764,-5.531,27.118
1.985,9.365,-4.575,27.12
1.734,9.603,-4.432,27.121
1.022,9.702,-4.588,27.123
-0.227,9.556,-3.536,27.219
-0.672,10.152,-2.86,27.221
-1.091,9.884,-0.353,27.222
-2.348,8.371,-3.338,27.229
-2.664,9.228,-3.918,27.23
0.866,10.617,-3.994,27.319
-0.787,8.994,-5.215,27.32
0.034,8.383,-2.706,27.326
0.291,8.104,-1.423,27.328
-0.032,8.466,-2.613,27.329
0.372,9.164,-1.451,27.418
-0.281,8.84,-2.372,27.42
-0.17,8.285,-1.268,27.422
0.051,7.674,-1.96,27.423
1.528,7.836,-0.849,27.425
2.1,8.2,0.3,27.518
0.943,7.679,-2.083,27.52
1.117,7.491,-1.153,27.522
0.787,7.506,-1.185,27.523
0.311,8.645,-1.996,27.525
-0.002,9.751,-1.381,27.618
-0.917,10.009,-2.147,27.62
-1.362,9.781,-2.045,27.623
-1.298,9.849,-1.419,27.625
-2.268,10.134,-1.287,27.637
-2.757,10.529,-0.086,27.719
-2.171,9.506,0.683,27.721
-2.395,9.221,0.904,27.723
-2.057,9.809,0.374,27.725
-0.781,10.804,-0.445,27.726
0.819,12.364,-0.525,27.819
0.719,11.924,-0.605,27.821
0.562,11.292,-0.31,27.822
0.086,10.177,0.169,27.828
-0.038,9.432,0.17,27.83
0.016,8.922,1.336,27.919
-0.147,9.533,1.193,27.92
0.029,10.856,0.909,27.922
0.598,11.411,0.538,27.924
0.936,11.222,0.396,27.925
0.544,10.683,2.461,27.993
0.421,10.51,2.17,27.995
0.566,10.557,2.252,27.997
-0.017,9.847,2.716,28.01
-0.718,9.183,2.994,28.012
0.698,8.596,4.862,28.118
0.568,8.536,5.126,28.119
1.123,9.047,5.021,28.124
1.338,8.877,3.989,28.126
0.668,6.936,5.148,28.22
1.584,6.869,4.892,28.223
0.999,6.698,4.364,28.234
0.753,6.606,4.875,28.235
1.387,7.074,5.499,28.237
1.867,7.434,5.912,28.239
2.595,8.391,6.121,28.319
1.006,8.111,5.815,28.321
2.193,8.085,5.814,28.322
1.817,7.833,5.744,28.324
0.891,7.082,6.142,28.325
0.658,6.816,6.354,28.419
0.911,7.222,6.529,28.42
1.386,7.772,6.563,28.431
1.45,8.401,6.668,28.433
1.442,9.184,6.746,28.435
-0.821,6.915,8.648,28.519
-0.053,7.323,9.768,28.521
-2.421,6.815,10.248,28.523
-2.289,6.378,10.022,28.524
-2.328,5.72,10.298,28.526
-1.494,6.524,10.558,28.619
-0.618,6.227,10.627,28.621
0.218,6.273,11.073,28.623
1.772,5.62,11.298,28.624
2.319,4.843,10.866,28.626
-1.607,6.067,8.747,28.719
-0.216,6.322,6.676,28.721
1.093,5.567,5.347,28.723
2.113,5.867,5.707,28.724
1.707,5.933,4.553,28.726
2.044,7.422,4.356,28.818
1.831,8.156,3.849,28.829
0.0,8.221,3.674,28.831
0.0,7.912,4.08,28.832
1.238,8.502,4.511,28.919
1.429,8.831,4.256,28.92
1.687,8.193,4.567,28.922
1.724,7.596,4.178,28.923
1.962,7.598,3.889,28.925
0.468,7.902,3.757,29.019
0.458,8.037,4.171,29.02
0.241,8.411,3.586,29.022
0.36,8.941,2.957,29.024
0.436,9.204,2.414,29.025
1.356,9.025,3.448,29.152
1.419,9.189,2.808,29.159
1.597,8.973,2.77,29.16
1.774,8.672,2.679,29.162
2.237,8.536,1.94,29.164
1.048,9.196,0.663,29.248
1.081,8.963,1.63,29.259
0.659,9.119,2.085,29.261
0.437,8.774,2.041,29.263
0.744,8.589,2.389,29.269
0.613,8.683,3.765,29.318
0.874,8.934,3.671,29.319
0.987,8.717,3.935,29.321
0.952,8.379,4.315,29.323
0.872,8.529,4.284,29.42
1.116,8.64,4.195,29.422
1.135,8.838,3.82,29.428
1.234,8.886,3.477,29.429
1.224,8.961,3.542,29.431
1.049,8.774,3.728,29.435
0.94,8.801,4.137,29.518
1.019,8.998,3.925,29.52
1.162,8.904,3.749,29.521
1.065,9.262,3.48,29.523
0.906,9.215,3.661,29.525
0.827,9.018,3.873,29.617
0.827,9.018,3.873,29.619
0.986,9.065,3.692,29.62
1.039,8.848,3.794,29.622
1.059,9.046,3.419,29.624
1.171,9.177,3.44,29.718
1.165,8.962,3.38,29.72
1.069,8.972,3.354,29.721
1.095,9.037,3.283,29.723
1.111,9.178,3.278,29.725
0.936,8.991,3.464,29.82
0.926,9.066,3.529,29.821
0.953,9.131,3.459,29.823
0.989,9.122,3.322,29.825
0.989,9.122,3.322,29.826
0.919,9.198,3.225,29.9
0.753,6.931,1.059,29.904
0.784,10.86,7.405,29.906
4.026,10.166,4.429,29.909
2.035,9.359,4.0,29.92
