accel_time_list,accel_x_list,accel_y_list,accel_z_list
0.0,-1.2,2.8,9.5
0.002,-1.1,2.8,9.5
0.004,-3.8,2.3,12.5
0.005,2.8,3.7,9.9
0.024,-0.5,2.6,10.6
0.095,-3.2,4.1,9.3
0.097,-1.2,1.3,8.6
0.099,-0.5,3.1,9.7
0.104,-1.1,2.1,9.3
0.222,-1.2,2.1,9.5
0.223,-0.7,2.6,9.6
0.225,-0.8,2.6,9.3
0.226,-0.9,2.4,9.1
0.228,-0.7,2.3,9.2
0.323,-0.8,2.3,9.4
0.325,-0.8,2.4,9.3
0.331,-0.8,2.5,9.3
0.332,-0.8,2.4,9.1
0.334,-0.8,2.5,9.0
0.346,-0.8,2.4,9.0
0.422,-0.9,2.6,8.8
0.423,-1.0,2.7,8.6
0.425,-1.1,2.8,8.2
0.426,-1.1,3.0,7.7
0.432,-1.2,3.4,7.3
0.497,-1.4,3.5,6.8
0.499,-1.8,3.5,6.4
0.503,-2.0,3.3,6.1
0.505,-2.3,2.9,5.9
0.507,-2.7,1.7,5.4
0.622,-3.1,-0.3,5.3
0.624,-3.7,-1.8,5.2
0.625,-4.3,-2.0,5.7
0.723,-4.6,-2.1,6.1
0.725,-4.8,-2.2,5.4
0.734,-5.2,-1.7,5.0
0.736,-5.9,-1.8,3.7
0.737,-6.9,-2.2,2.4
0.747,-7.7,-2.9,1.6
0.749,-9.5,-3.6,0.5
0.822,-11.7,-4.1,-0.4
0.824,-13.1,-5.4,-0.9
0.826,-14.6,-6.7,-0.5
0.832,-15.8,-7.6,0.8
0.833,-16.7,-8.8,1.4
0.896,-17.0,-9.8,0.7
0.897,-15.8,-9.7,1.0
0.899,-14.2,-7.6,1.9
0.901,-13.6,-0.8,1.9
1.029,-12.1,-0.1,2.8
1.036,-10.8,-3.2,2.2
1.039,-10.6,-4.7,1.8
1.041,-10.7,-5.4,1.2
1.123,-10.1,-6.5,1.3
1.125,-8.7,-6.7,2.3
1.127,-7.6,-5.9,2.1
1.128,-7.2,-4.8,1.6
1.141,-7.2,-5.0,1.5
1.143,-7.6,-4.8,1.8
1.225,-8.9,-5.2,1.5
1.226,-10.4,-5.9,0.8
1.228,-11.4,-6.1,0.3
1.23,-11.7,-5.8,-0.1
1.231,-11.5,-5.3,-0.1
1.321,-11.0,-4.5,0.0
1.323,-10.6,-3.6,0.1
1.325,-10.2,-3.1,0.2
1.326,-9.9,-2.9,0.2
1.328,-9.9,-2.8,0.3
1.426,-9.8,-2.9,0.4
1.428,-9.7,-3.1,0.4
1.429,-9.7,-3.2,0.4
1.431,-9.8,-3.3,0.3
1.433,-9.6,-3.3,0.3
1.521,-9.3,-3.2,0.2
1.523,-9.1,-3.2,0.1
1.532,-9.2,-3.1,0.0
1.541,-9.2,-3.0,0.0
1.543,-9.1,-3.0,0.2
1.623,-9.0,-2.9,0.2
1.624,-9.1,-2.9,0.2
1.626,-9.4,-2.9,0.2
1.628,-9.5,-2.9,0.4
1.629,-9.3,-2.9,0.5
1.721,-9.9,-2.9,0.6
1.723,-10.6,-2.8,0.6
1.725,-10.9,-2.6,0.8
1.73,-11.3,-2.3,1.0
1.731,-10.8,-2.3,1.4
1.821,-9.5,-2.1,1.9
1.823,-8.6,-1.7,2.3
1.824,-8.7,-1.3,2.0
1.826,-9.6,-1.1,1.3
1.83,-10.4,-1.3,0.9
1.921,-10.3,-1.6,1.1
1.931,-9.4,-1.9,1.6
1.932,-8.6,-2.1,1.9
1.934,-8.1,-2.1,1.7
1.936,-8.9,-0.2,2.7
2.021,-8.0,-2.0,4.4
2.023,-8.3,-4.1,2.2
2.024,-8.0,-5.6,1.1
2.032,-7.8,-5.5,0.8
2.034,-7.2,-5.3,0.9
2.121,-6.9,-4.8,1.2
2.123,-6.2,-4.8,1.2
2.124,-5.4,-4.2,1.4
2.131,-4.6,-3.5,1.9
2.132,-4.5,-2.8,1.9
2.225,-4.3,-3.3,2.1
2.227,-4.5,-4.0,1.0
2.228,-5.4,-3.6,1.6
2.23,-7.0,-4.3,0.6
2.232,-9.1,-4.4,0.2
2.323,-9.5,-3.7,0.7
2.325,-9.4,-3.0,1.3
2.33,-9.4,-2.9,1.6
2.331,-9.8,-2.8,1.9
2.333,-10.1,-3.0,2.2
2.421,-11.0,-3.4,2.6
2.427,-11.7,-4.4,2.0
2.429,-13.0,-4.8,2.0
2.43,-13.5,-4.1,1.9
2.432,-13.1,-3.1,1.8
2.52,-13.5,-2.2,0.9
2.522,-16.6,-2.3,0.6
2.524,-19.4,-2.2,0.4
2.525,-15.5,-1.8,1.0
2.621,-12.5,-0.9,1.6
2.623,-12.3,-0.8,1.3
2.625,-11.3,-1.1,1.1
2.626,-8.9,-1.1,1.5
2.633,-6.8,-1.6,1.6
2.721,-5.7,-2.4,1.3
2.723,-5.5,-3.1,0.8
2.724,-5.6,-3.7,0.6
2.73,-5.7,-4.4,0.6
2.731,-6.2,-5.0,0.5
2.821,-6.6,-5.3,0.6
2.823,-6.7,-4.9,0.7
2.831,-6.4,-4.1,1.0
2.833,-6.5,-3.6,1.0
2.834,-6.8,-3.2,1.0
2.921,-6.9,-2.5,1.2
2.923,-6.7,-2.1,1.4
2.924,-6.6,-1.7,1.4
2.926,-6.4,-1.4,1.2
2.927,-6.2,-1.4,0.9
3.021,-6.5,-1.7,0.8
3.027,-7.4,-2.0,0.9
3.029,-7.6,-2.5,1.2
3.03,-7.3,-3.0,1.5
3.044,-7.2,-3.5,1.6
3.121,-8.4,-4.0,1.2
3.124,-11.4,-4.4,0.9
3.125,-14.6,-4.7,0.8
3.127,-16.3,-5.1,1.4
3.129,-14.0,-5.1,1.4
3.221,-11.5,-4.4,1.1
3.222,-15.3,-3.2,0.2
3.224,-18.9,-3.1,-0.3
3.23,-15.2,-2.7,1.3
3.232,-11.3,-2.2,2.9
3.323,-11.1,-2.1,2.8
3.324,-11.3,-2.1,2.4
3.326,-10.8,-2.2,2.3
3.328,-9.6,-2.7,2.2
3.329,-7.8,-2.4,2.5
3.425,-6.2,-2.0,2.6
3.427,-5.5,-1.9,2.4
3.428,-5.2,-1.8,2.1
3.438,-4.8,-1.9,2.0
3.44,-4.5,-2.1,2.0
3.521,-4.8,-2.6,1.9
3.522,-5.7,-2.7,1.9
3.524,-6.7,-2.9,2.1
3.529,-7.4,-3.0,2.6
3.531,-7.8,-3.2,2.7
3.621,-8.3,-3.8,2.0
3.623,-9.0,-3.9,1.8
3.624,-9.2,-3.7,1.8
3.626,-8.9,-3.4,1.9
3.628,-9.1,-2.9,1.8
3.721,-9.3,-2.6,1.5
3.722,-10.0,-2.8,1.2
3.724,-12.4,-3.5,1.3
3.726,-15.3,-4.0,1.6
3.727,-14.2,-4.3,2.1
3.821,-11.4,-3.5,2.3
3.825,-10.0,-2.7,1.3
3.843,-11.1,-2.9,-0.0
3.844,-16.8,-3.0,-0.0
3.846,-16.8,-3.5,1.0
3.921,-12.6,-3.1,2.0
3.922,-10.6,-2.6,1.9
3.924,-9.9,-2.5,1.0
3.926,-8.4,-2.3,1.2
3.927,-6.9,-2.1,1.7
4.021,-6.3,-2.3,1.8
4.022,-6.3,-2.8,1.8
4.027,-6.1,-3.0,2.0
4.029,-5.4,-3.0,2.2
4.03,-4.9,-2.9,1.7
4.121,-4.9,-2.5,1.3
4.123,-5.4,-2.1,1.0
4.124,-6.0,-2.0,0.9
4.13,-6.3,-2.1,1.2
4.221,-6.3,-2.3,1.2
4.222,-6.8,-2.5,1.2
4.232,-7.5,-2.8,1.2
4.233,-7.7,-3.1,1.1
4.235,-7.5,-3.3,1.2
4.321,-7.2,-3.5,1.3
4.322,-7.7,-3.4,1.3
4.324,-10.0,-3.0,1.4
4.326,-13.0,-2.9,1.3
4.327,-16.4,-2.9,1.0
4.427,-17.2,-3.7,-0.0
4.429,-14.8,-4.7,0.3
4.431,-13.3,-5.5,0.5
4.433,-15.1,-5.8,0.4
4.435,-15.3,-5.9,1.0
4.52,-13.0,-5.2,2.0
4.522,-11.1,-4.2,2.5
4.528,-10.0,-3.8,2.6
4.53,-8.8,-3.5,2.6
4.531,-8.3,-3.0,2.7
4.627,-7.9,-2.9,2.6
4.639,-7.4,-2.9,2.3
4.641,-6.8,-3.2,2.1
4.643,-6.3,-3.0,2.3
4.644,-5.4,-2.8,2.5
4.696,-4.3,-2.9,2.4
4.701,-4.0,-2.1,2.6
4.703,-4.1,-2.7,2.5
4.704,-4.5,-3.0,2.3
4.706,-4.5,-2.7,2.2
4.818,-5.9,-3.2,1.5
4.82,-8.4,-3.8,1.0
4.822,-10.3,-3.9,1.1
4.824,-10.5,-3.8,1.5
4.927,-9.9,-3.7,1.9
4.929,-10.2,-3.7,1.7
4.931,-10.6,-3.7,1.4
4.932,-10.7,-3.7,1.2
4.934,-12.2,-3.8,1.1
4.936,-13.8,-4.2,1.0
5.02,-13.6,-4.5,1.3
5.027,-13.2,-4.2,1.6
5.029,-12.5,-3.9,1.4
5.03,-11.2,-3.7,1.0
5.032,-11.7,-3.6,0.6
5.121,-13.1,-3.8,0.6
5.122,-13.1,-3.8,1.3
5.129,-11.7,-3.6,1.8
5.13,-10.0,-3.4,1.8
5.133,-8.6,-3.1,1.5
5.22,-7.4,-2.7,1.6
5.222,-6.3,-2.6,1.9
5.224,-5.4,-2.5,2.1
5.225,-4.9,-2.4,2.1
5.227,-4.4,-2.5,2.0
5.321,-4.0,-2.5,1.9
5.33,-3.6,-2.4,1.7
5.332,-3.5,-2.4,1.4
5.334,-4.6,-2.5,0.8
5.343,-6.4,-2.8,0.3
5.42,-7.4,-3.0,0.3
5.422,-7.5,-3.3,0.7
5.424,-7.5,-3.7,1.2
5.425,-8.3,-4.2,1.0
5.427,-10.1,-4.7,0.6
5.52,-12.7,-5.8,0.2
5.522,-15.0,-7.2,-0.0
5.531,-15.4,-8.0,0.6
5.533,-14.5,-7.2,1.2
5.536,-12.9,-5.2,1.5
5.623,-12.4,-4.2,1.4
5.626,-13.2,-4.2,1.3
5.632,-13.3,-3.7,1.6
5.634,-12.6,-3.0,2.7
5.635,-12.1,-2.6,3.1
5.725,-10.6,-2.4,3.2
5.727,-8.6,-2.2,3.1
5.728,-7.1,-2.3,2.8
5.738,-6.1,-2.6,2.4
5.74,-5.5,-2.6,2.2
5.82,-5.3,-2.7,2.0
5.821,-5.1,-2.8,2.2
5.826,-4.4,-2.9,2.0
5.828,-3.9,-2.8,2.0
5.92,-4.4,-2.9,1.2
5.922,-6.1,-3.1,0.5
5.923,-7.7,-3.2,0.6
5.925,-7.7,-3.4,1.2
5.927,-6.8,-3.6,1.8
6.021,-7.6,-3.6,1.8
6.023,-9.1,-3.6,1.2
6.025,-9.9,-3.6,0.7
6.027,-10.2,-3.7,0.6
6.033,-10.5,-4.0,0.5
6.12,-11.8,-4.3,0.3
6.122,-14.2,-4.7,-0.0
6.123,-16.8,-4.9,0.1
6.133,-16.8,-4.7,0.4
6.14,-12.4,-3.8,0.8
6.22,-11.1,-2.6,0.8
6.222,-15.0,-2.3,0.2
6.223,-14.8,-2.6,0.5
6.225,-10.5,-2.1,1.8
6.227,-8.3,-2.0,2.4
6.32,-8.1,-2.6,1.9
6.322,-8.4,-3.2,1.7
6.323,-8.2,-3.9,2.0
6.325,-7.6,-4.6,2.2
6.327,-7.0,-4.7,2.0
6.395,-6.7,-4.6,1.8
6.397,-7.0,-4.4,1.5
6.399,-7.5,-4.3,1.3
6.4,-8.0,-4.2,1.2
6.402,-8.4,-3.9,1.2
6.52,-8.9,-3.8,1.3
6.522,-9.6,-3.7,1.4
6.533,-10.2,-3.7,1.4
6.535,-10.5,-3.6,1.2
6.623,-10.6,-3.3,1.1
6.625,-10.6,-3.3,1.1
6.633,-10.8,-3.4,1.2
6.635,-10.5,-3.5,1.1
6.636,-9.9,-3.5,1.2
6.639,-9.3,-3.4,1.4
6.72,-9.4,-3.5,1.5
6.722,-10.3,-3.7,1.3
6.723,-10.7,-4.1,1.1
6.725,-11.0,-4.3,0.8
6.727,-10.7,-4.4,0.6
6.82,-8.8,-4.2,0.8
6.822,-7.6,-4.1,1.0
6.823,-8.7,-4.2,0.9
6.825,-10.3,-4.1,0.7
6.827,-10.8,-3.7,0.7
6.921,-11.0,-3.4,0.7
6.935,-11.0,-3.0,0.6
6.937,-10.6,-2.4,0.6
6.938,-10.0,-2.1,0.7
6.953,-9.1,-2.3,0.7
7.023,-8.6,-2.5,0.5
7.025,-8.3,-2.7,0.4
7.027,-8.1,-3.0,0.3
7.028,-8.0,-3.2,0.2
7.03,-7.9,-3.4,0.4
7.12,-7.7,-3.5,0.5
7.122,-7.4,-3.6,0.6
7.124,-7.2,-3.6,0.7
7.125,-7.6,-3.6,0.8
7.127,-7.9,-3.5,0.9
7.22,-8.0,-3.5,1.0
7.223,-8.2,-3.6,1.2
7.224,-8.5,-3.6,1.4
7.226,-8.9,-3.5,1.5
7.228,-9.2,-3.4,1.5
7.32,-9.4,-3.2,1.5
7.321,-9.3,-3.0,1.6
7.323,-9.2,-2.7,1.7
7.325,-9.2,-2.3,1.8
7.331,-9.6,-1.2,1.9
7.419,-10.6,-0.3,3.7
7.421,-11.6,-1.3,2.4
7.422,-14.1,-4.1,1.3
7.424,-14.8,-4.7,1.3
7.52,-11.6,-4.8,1.6
7.522,-8.3,-4.9,1.1
7.523,-7.6,-4.7,0.6
7.525,-9.7,-4.1,-0.2
7.53,-11.2,-3.6,-0.3
7.62,-11.0,-3.7,0.1
7.622,-10.1,-4.0,0.5
7.624,-9.6,-3.8,0.5
7.625,-8.9,-3.4,0.4
7.627,-8.1,-3.3,0.3
7.72,-7.4,-3.2,0.0
7.723,-7.5,-3.1,-0.3
7.725,-8.2,-3.0,-0.4
7.727,-8.7,-3.2,-0.3
7.729,-9.0,-3.2,-0.0
7.82,-9.0,-3.0,0.2
7.821,-9.1,-3.0,0.1
7.829,-9.1,-3.1,0.2
7.83,-8.7,-3.2,0.4
7.832,-8.4,-3.4,0.5
7.921,-8.8,-3.5,0.5
7.923,-9.2,-3.5,0.5
7.931,-9.2,-3.4,0.7
7.934,-9.1,-3.3,0.9
7.936,-9.3,-3.1,1.1
8.02,-9.4,-2.8,1.2
8.021,-9.2,-2.6,1.2
8.023,-9.0,-2.5,1.3
8.025,-9.3,-2.5,1.4
8.034,-9.6,-2.6,1.7
8.124,-9.3,-2.6,2.1
8.126,-9.2,-2.5,2.2
8.128,-10.8,-2.5,1.4
8.129,-13.1,-2.8,0.6
8.131,-13.7,-2.7,0.4
8.221,-11.0,-2.4,0.7
8.223,-8.1,-2.2,0.9
8.226,-7.6,-2.5,0.7
8.231,-9.4,-3.2,0.6
8.233,-10.8,-3.9,1.0
8.319,-10.5,-4.5,1.4
8.321,-9.6,-4.5,1.6
8.322,-9.4,-3.7,1.2
8.324,-9.2,-3.1,0.7
8.325,-8.6,-2.6,0.8
8.42,-8.1,-2.3,0.9
8.425,-8.3,-1.6,1.4
8.427,-8.6,-2.0,1.5
8.436,-8.9,-2.0,1.8
8.438,-8.7,-2.3,1.9
8.52,-8.3,-2.5,1.8
8.521,-7.4,-2.8,1.4
8.523,-6.2,-2.8,1.3
8.525,-5.1,-2.1,1.7
8.53,-4.5,-1.3,2.2
8.62,-4.1,-0.6,2.8
8.622,-3.9,-0.5,2.6
8.623,-4.6,-1.5,2.0
8.625,-6.2,-2.3,1.4
8.627,-7.5,-3.0,1.1
8.72,-8.5,-3.6,0.9
8.721,-9.1,-4.0,0.8
8.723,-9.6,-4.1,0.8
8.728,-9.9,-3.9,0.9
8.73,-10.0,-3.8,1.0
8.82,-11.6,-4.0,0.6
8.821,-16.7,-4.7,1.2
8.842,-17.5,-5.3,1.4
8.844,-13.9,-4.7,1.4
8.847,-16.1,-3.9,0.1
8.921,-19.3,-3.4,-0.5
8.923,-16.4,-2.2,0.4
8.924,-12.1,-1.1,1.3
8.929,-10.4,-0.9,1.3
8.931,-9.6,-1.3,1.1
9.024,-8.1,-1.3,1.3
9.026,-6.6,-1.7,1.3
9.027,-5.5,-2.5,1.2
9.029,-5.1,-3.3,1.0
9.031,-4.9,-3.7,0.9
9.119,-4.4,-3.9,1.0
9.12,-3.8,-3.8,0.9
9.122,-3.9,-3.4,0.6
9.124,-4.7,-2.8,0.4
9.22,-5.6,-2.5,0.4
9.221,-6.2,-2.4,0.5
9.231,-6.7,-2.5,0.7
9.233,-7.1,-2.6,0.6
9.234,-7.6,-2.7,0.4
9.32,-8.6,-2.9,0.1
9.321,-9.3,-3.4,0.1
9.323,-9.1,-3.9,0.3
9.324,-9.7,-4.2,0.3
9.326,-12.6,-4.7,0.1
9.419,-16.5,-5.3,-0.1
9.421,-18.4,-5.4,-0.0
9.423,-15.5,-5.0,0.9
9.424,-12.2,-4.1,1.8
9.426,-12.2,-3.1,1.9
9.524,-13.5,-2.7,1.6
9.526,-13.2,-2.2,2.0
9.527,-11.5,-1.6,3.0
9.529,-9.5,-1.1,3.4
9.532,-8.1,-1.2,3.3
9.62,-7.5,-1.4,2.9
9.631,-6.4,-1.6,2.7
9.632,-4.8,-1.8,2.4
9.634,-3.3,-1.8,2.0
9.636,-3.1,-1.7,1.0
9.719,-3.3,-2.4,0.5
9.721,-5.4,1.0,2.0
9.722,-5.9,1.5,3.5
9.724,-6.2,-1.4,3.1
9.732,-7.8,-2.2,3.1
9.819,-9.1,-2.9,2.7
9.822,-10.1,-4.0,2.1
9.824,-10.5,-4.7,1.4
9.826,-10.3,-5.2,0.4
9.827,-12.4,-5.3,-0.3
9.919,-16.0,-5.5,-0.6
9.92,-17.6,-5.4,-0.3
9.922,-17.8,-4.6,0.8
9.923,-14.5,-3.8,0.9
9.925,-11.0,-2.5,0.7
10.019,-13.8,-1.5,0.7
10.021,-16.3,-1.9,0.6
10.023,-11.7,-2.1,1.6
10.024,-8.5,-1.8,2.1
10.026,-7.2,-2.0,1.7
10.119,-5.8,-2.3,1.3
10.121,-4.9,-2.3,1.0
10.122,-5.1,-2.6,0.8
10.125,-5.3,-3.1,0.8
10.131,-5.0,-3.3,1.2
10.219,-4.6,-3.3,1.3
10.221,-4.6,-3.3,1.1
10.227,-5.3,-3.1,0.9
10.229,-5.9,-2.8,0.8
10.23,-6.4,-2.6,0.9
10.319,-6.8,-2.6,0.9
10.321,-7.3,-2.5,0.9
10.323,-8.0,-2.5,0.9
10.324,-8.9,-2.7,0.7
10.339,-10.5,-3.0,0.3
10.424,-13.3,-3.6,0.0
10.426,-15.7,-4.2,0.0
10.427,-16.1,-4.7,0.6
10.429,-13.7,-4.6,1.5
10.431,-12.0,-4.4,1.6
10.519,-13.8,-4.4,0.8
10.521,-16.2,-4.6,0.3
10.526,-14.7,-4.6,1.3
10.527,-12.0,-3.9,2.6
10.529,-10.2,-2.9,3.2
10.621,-8.3,-1.9,3.6
10.622,-6.8,-1.4,3.5
10.624,-6.7,-1.3,2.9
10.625,-7.4,-1.5,2.2
10.627,-7.3,-1.8,2.1
10.719,-6.5,-2.0,2.5
10.721,-5.1,-2.2,2.9
10.724,-3.4,-2.5,2.8
10.733,-2.8,-3.0,2.2
10.735,-4.3,-3.2,1.5
10.825,-6.6,-2.7,1.5
10.827,-7.4,-3.2,2.0
10.828,-7.9,-3.1,3.0
10.83,-9.0,-3.7,2.5
10.919,-10.0,-4.0,2.1
10.921,-10.6,-3.7,2.0
10.922,-10.8,-3.6,1.9
10.924,-10.4,-3.2,1.6
10.926,-11.8,-2.9,1.0
11.019,-15.2,-3.1,0.8
11.021,-16.5,-3.8,0.5
11.023,-14.4,-3.8,1.4
11.026,-11.2,-3.2,1.6
11.048,-9.7,-2.8,0.7
11.12,-13.6,-2.7,0.1
11.122,-16.7,-3.2,0.4
11.124,-12.6,-3.1,1.8
11.14,-8.9,-2.5,2.3
11.141,-8.0,-2.4,1.4
11.194,-7.7,-2.3,0.8
11.197,-6.6,-2.0,1.0
11.199,-5.6,-2.1,1.3
11.202,-5.6,-2.6,1.3
11.204,-5.8,-2.8,1.3
11.342,-5.5,-3.0,1.5
11.349,-4.9,-3.1,1.6
11.351,-4.7,-2.8,1.4
11.354,-5.2,-2.5,0.9
11.422,-6.3,-2.4,0.4
11.424,-7.3,-2.6,0.6
11.425,-7.5,-2.7,1.1
11.427,-7.5,-2.7,1.2
11.429,-7.9,-2.7,1.0
11.43,-8.7,-2.8,0.8
11.432,-9.1,-3.2,0.7
11.518,-12.9,-3.7,1.1
11.527,-16.3,-4.2,1.0
11.529,-16.6,-4.2,1.4
11.538,-13.4,-3.9,2.0
11.619,-12.2,-3.4,1.8
11.62,-13.9,-3.2,1.2
11.623,-15.1,-3.3,1.3
11.631,-14.0,-3.3,2.2
11.719,-12.2,-3.1,3.0
11.721,-10.7,-2.3,3.3
11.723,-9.2,-2.0,3.4
11.724,-7.7,-2.0,3.3
11.726,-6.6,-2.1,3.1
11.82,-5.6,-2.2,2.8
11.826,-5.1,-2.3,2.4
11.827,-5.4,-2.3,2.0
11.829,-5.7,-2.7,1.6
11.831,-5.3,-2.7,1.8
11.894,-4.3,-2.5,2.2
11.895,-4.3,-2.3,2.0
11.905,-6.8,-2.4,1.3
11.914,-9.4,-2.9,1.3
11.916,-10.0,-3.0,1.8
12.017,-8.3,-3.0,2.3
12.019,-8.4,-2.6,2.3
12.034,-10.1,-2.7,1.6
12.035,-10.6,-2.6,1.2
12.121,-10.4,-2.5,0.9
12.123,-12.0,-3.2,0.6
12.124,-15.2,-3.5,0.9
12.129,-15.3,-3.9,1.3
12.131,-13.1,-3.6,1.8
12.134,-11.9,-3.1,1.5
12.22,-10.8,-2.7,0.3
12.222,-12.8,-2.1,-0.0
12.225,-14.2,-2.5,0.5
12.231,-11.8,-3.0,1.3
12.233,-11.1,-2.6,1.6
12.319,-11.2,-2.7,1.2
12.329,-9.7,-2.6,1.2
12.33,-7.8,-2.3,1.4
12.338,-6.5,-2.1,1.4
12.34,-5.7,-2.1,1.4
12.419,-5.4,-2.4,1.4
12.421,-5.2,-2.5,1.5
12.422,-4.8,-2.6,1.6
12.424,-4.9,-2.7,1.5
12.426,-5.6,-2.6,1.3
12.523,-6.6,-2.6,1.1
12.525,-7.5,-2.5,1.3
12.527,-7.8,-2.3,1.4
12.528,-7.5,-2.1,1.2
12.53,-7.4,-2.0,0.8
12.62,-8.2,-2.2,0.5
12.621,-8.9,-2.6,0.6
12.623,-9.4,-3.0,0.7
12.625,-10.7,-3.5,0.8
12.626,-12.9,-4.2,0.8
12.719,-14.5,-4.5,0.8
12.723,-14.9,-4.6,0.9
12.726,-14.8,-4.4,1.0
12.727,-14.3,-4.1,1.2
12.729,-13.9,-3.6,1.4
12.819,-14.2,-3.4,1.6
12.82,-13.8,-3.1,1.7
12.825,-12.3,-2.6,2.0
12.827,-10.6,-1.9,2.4
12.829,-9.0,-1.9,2.6
12.919,-7.6,-1.8,2.8
12.92,-6.4,-1.7,2.8
12.922,-5.2,-1.7,2.6
12.923,-4.8,-1.8,2.3
12.925,-5.1,-2.1,1.9
13.023,-5.2,-2.2,1.8
13.025,-4.2,-2.7,1.6
13.027,-3.7,-2.8,1.2
13.028,-5.6,-1.2,1.6
13.042,-7.7,-1.8,1.7
13.125,-9.3,-3.1,2.0
13.127,-9.5,-3.1,2.1
13.129,-9.0,-3.2,2.0
13.13,-9.2,-3.2,1.6
13.132,-9.1,-3.4,1.1
13.218,-8.9,-3.7,0.3
13.219,-10.8,-4.0,-0.2
13.226,-14.7,-4.9,0.2
13.227,-15.9,-5.2,0.1
13.318,-13.7,-4.5,0.7
13.32,-12.2,-3.9,0.8
13.321,-11.9,-3.6,0.1
13.323,-12.8,-2.8,0.4
13.325,-13.1,-2.7,0.5
13.418,-11.5,-3.9,0.6
13.42,-10.4,-4.2,0.4
13.421,-9.8,-3.9,0.3
13.423,-8.6,-4.0,0.3
13.433,-7.2,-4.0,0.4
13.518,-6.3,-3.6,0.6
13.52,-6.4,-3.4,0.7
13.522,-6.7,-3.0,1.2
13.523,-6.8,-2.3,1.8
13.525,-6.6,-1.9,2.0
13.593,-6.5,-1.5,2.1
13.595,-6.7,-1.9,1.5
13.596,-7.0,-3.3,0.4
13.605,-7.1,-4.0,0.1
13.607,-7.1,-4.1,0.1
13.716,-6.9,-3.8,0.1
13.717,-6.7,-3.1,0.1
13.719,-6.8,-2.8,0.0
13.721,-6.9,-2.8,-0.1
13.82,-7.2,-3.1,-0.2
13.822,-7.5,-3.3,-0.1
13.824,-7.8,-3.8,0.0
13.825,-9.3,-4.6,0.2
13.835,-12.5,-5.3,0.4
13.837,-16.4,-6.5,-0.0
13.918,-18.4,-7.5,-0.7
13.92,-14.9,-6.7,-0.1
13.921,-12.6,-5.4,1.0
13.923,-14.6,-4.5,0.1
13.928,-15.4,-3.7,-0.7
14.019,-12.4,-4.1,-0.3
14.022,-9.9,-4.9,-0.2
14.027,-8.7,-5.1,-0.2
14.029,-7.5,-5.3,-0.0
14.031,-6.7,-6.0,-0.2
14.118,-6.5,-5.8,-0.3
14.12,-6.0,-5.3,-0.9
14.121,-6.3,-4.0,-0.2
14.123,-5.9,-3.3,0.1
14.124,-5.4,-5.7,-1.4
14.222,-6.7,3.5,2.7
14.224,-6.6,2.2,2.2
14.235,-7.2,-3.9,-0.2
14.237,-8.0,-4.4,-0.1
14.239,-7.5,-4.0,0.5
14.318,-5.0,-4.1,0.3
14.32,-3.8,-3.8,-0.1
14.321,-4.6,-3.7,-0.8
14.323,-6.0,-3.7,-1.4
14.325,-6.8,-3.4,-1.2
14.419,-7.3,-3.6,-0.5
14.42,-7.9,-4.0,-0.4
14.422,-8.9,-4.3,-1.2
14.424,-14.2,-5.2,-1.7
14.425,-23.4,-6.7,-2.6
14.518,-25.5,-6.8,-3.7
14.52,-16.2,-6.3,-2.9
14.521,-11.8,-4.6,-2.9
14.523,-11.7,-3.0,-2.1
14.525,-14.8,-2.1,-2.8
14.619,-13.1,-1.3,-2.6
14.628,-9.6,-1.3,-1.5
14.63,-9.3,-2.8,-1.7
14.64,-10.5,-3.4,-0.9
14.642,-9.4,-4.4,0.4
14.718,-7.9,-5.5,1.1
14.72,-7.7,-6.2,-0.0
14.721,-7.8,-6.4,-1.3
14.723,-7.5,-5.8,-1.9
14.728,-7.3,-4.6,-2.1
14.818,-7.5,-3.6,-2.0
14.824,-7.9,-3.2,-2.3
14.826,-8.6,-2.3,-2.2
14.827,-9.2,-2.0,-2.0
14.829,-9.2,-2.0,-1.4
14.917,-9.6,-1.8,-0.7
14.919,-11.7,-2.1,-0.3
14.921,-13.4,-2.7,-0.0
14.922,-12.2,-3.0,0.2
15.018,-9.2,-3.0,0.2
15.028,-8.3,-2.8,-0.2
15.029,-8.8,-2.8,-0.5
15.031,-9.4,-2.7,-0.2
15.032,-9.6,-3.2,-0.1
15.118,-9.9,-3.2,0.2
15.12,-10.6,-3.1,0.2
15.126,-10.3,-2.9,0.5
15.127,-9.7,-2.7,0.7
15.132,-9.9,-2.3,0.5
15.218,-9.8,-1.8,0.5
15.22,-9.2,-1.3,0.9
15.221,-9.4,-0.9,1.1
15.223,-9.7,-0.6,1.2
15.224,-9.7,-0.7,1.2
15.318,-9.6,-0.8,1.1
15.32,-9.5,-1.0,1.1
15.321,-9.1,-1.1,1.2
15.323,-8.7,-1.2,1.3
15.325,-8.4,-1.4,1.4
15.418,-8.6,-1.7,1.4
15.424,-9.2,-2.0,1.2
15.427,-9.5,-2.2,1.4
15.429,-9.6,-2.3,1.7
15.43,-9.8,-2.5,1.7
15.518,-10.2,-2.8,1.7
15.52,-10.2,-3.0,1.6
15.521,-10.1,-2.9,1.7
15.527,-10.2,-2.7,1.8
15.529,-10.1,-2.8,1.6
15.62,-9.8,-2.9,1.4
15.622,-9.9,-3.0,1.2
15.629,-9.7,-3.3,0.8
15.63,-9.5,-3.4,1.7
15.632,-9.0,-3.3,2.3
15.718,-8.7,-4.6,1.7
15.719,-9.0,-4.6,1.6
15.721,-9.6,-4.4,1.2
15.723,-10.1,-4.8,0.8
15.732,-10.3,-4.3,1.0
15.817,-9.9,-4.1,1.3
15.819,-9.8,-3.9,1.4
15.82,-9.9,-3.8,1.2
15.822,-9.6,-3.7,1.0
15.824,-9.4,-3.7,0.9
15.918,-9.4,-3.8,0.8
15.919,-9.3,-3.9,0.9
15.921,-9.1,-3.9,1.0
15.923,-9.3,-3.9,0.8
15.924,-9.8,-3.7,0.7
16.018,-10.4,-3.5,0.7
16.019,-10.3,-3.4,0.7
16.021,-9.5,-3.3,0.9
16.027,-8.9,-3.1,1.0
16.029,-9.0,-3.0,1.0
16.118,-9.2,-3.0,0.9
16.119,-9.3,-3.0,1.0
16.121,-9.4,-2.9,1.0
16.131,-9.5,-2.9,1.0
16.132,-9.6,-2.5,1.2
16.218,-9.6,-2.3,1.3
16.224,-9.5,-1.9,1.4
16.226,-9.5,-1.9,1.4
16.227,-9.5,-2.1,1.4
16.229,-9.4,-2.1,1.5
16.318,-9.5,-2.4,1.2
16.319,-9.5,-2.3,1.3
16.324,-9.3,-2.4,1.2
16.326,-9.3,-2.3,1.2
16.328,-9.4,-2.3,1.1
16.418,-9.3,-2.4,1.2
16.419,-9.4,-2.6,1.1
16.421,-9.4,-2.8,1.1
16.423,-9.4,-2.8,1.1
16.424,-9.3,-3.0,1.1
16.519,-9.3,-3.1,1.1
16.521,-9.4,-3.2,1.1
16.53,-9.4,-3.3,1.1
16.532,-9.5,-3.4,1.0
16.536,-9.6,-3.5,0.9
16.618,-9.7,-3.5,0.9
16.623,-9.5,-3.5,1.0
16.625,-9.4,-3.4,1.0
16.626,-9.4,-3.4,1.0
16.718,-9.3,-3.3,1.0
16.719,-9.4,-3.2,1.0
16.721,-9.4,-3.2,1.1
16.725,-9.3,-3.1,1.1
16.728,-9.3,-3.0,1.0
16.818,-9.4,-3.1,1.0
16.82,-9.2,-3.1,1.1
16.821,-9.2,-3.0,1.1
16.823,-9.3,-3.0,1.0
16.825,-9.3,-3.1,1.0
16.918,-9.3,-3.2,1.1
16.919,-9.3,-3.1,1.1
16.929,-9.3,-3.2,1.1
16.938,-9.3,-3.1,1.1
16.94,-9.3,-3.2,1.1
17.018,-9.2,-3.1,1.2
17.019,-9.4,-2.4,1.4
17.021,-9.6,0.6,3.4
17.026,-9.1,0.9,2.9
17.028,-9.8,-0.1,0.9
17.128,-9.7,-0.5,-1.0
17.131,-9.6,-2.4,-2.9
17.133,-9.4,-5.3,-4.6
17.135,-8.8,-8.3,-4.6
17.136,-8.2,-8.7,-3.7
17.217,-8.5,-7.3,-2.7
17.219,-9.0,-6.9,-2.2
17.221,-8.8,-7.4,-1.7
17.222,-8.3,-6.4,-1.1
17.224,-8.2,-4.3,-0.6
17.317,-8.5,-3.5,-0.4
17.327,-8.6,-3.7,-0.3
17.329,-8.5,-3.5,-0.1
17.33,-8.6,-3.0,0.1
17.337,-8.9,-2.6,0.4
17.42,-9.2,-2.3,0.5
17.422,-9.4,-1.9,0.6
17.424,-9.4,-1.6,0.7
17.425,-9.5,-1.6,0.9
17.427,-9.6,-1.9,1.0
17.517,-9.9,-2.4,1.1
17.519,-9.9,-2.9,1.3
17.521,-9.7,-3.2,1.3
17.523,-9.3,-3.2,1.5
17.525,-8.9,-3.3,1.5
17.617,-8.5,-3.5,1.4
17.619,-8.4,-3.4,1.5
17.621,-8.6,-3.4,1.7
17.622,-9.0,-3.5,1.6
17.624,-9.6,-3.7,1.4
17.722,-10.0,-3.8,1.2
17.724,-10.0,-4.0,1.1
17.725,-9.8,-4.1,1.1
17.727,-9.6,-4.2,1.0
17.729,-9.3,-4.5,1.1
17.817,-9.1,-4.9,1.2
17.819,-9.0,-5.2,1.2
17.821,-9.1,-5.9,1.0
17.822,-9.0,-6.1,0.9
17.828,-8.9,-6.1,1.0
17.917,-8.9,-6.6,0.9
17.919,-9.0,-7.7,0.7
17.921,-9.3,-7.8,0.8
17.922,-9.8,-7.2,0.8
17.924,-9.9,-7.1,0.9
18.018,-9.5,-6.9,0.8
18.019,-9.2,-6.8,1.1
18.021,-9.1,-7.0,1.1
18.023,-9.8,-7.8,0.3
18.039,-10.9,-8.9,-0.3
18.117,-11.0,-9.5,-0.1
18.119,-10.7,-9.6,-0.0
18.124,-9.9,-9.5,0.2
18.126,-8.5,-8.9,0.4
18.127,-7.3,-8.2,0.5
18.217,-6.9,-7.5,0.5
18.22,-6.9,-7.2,0.4
18.222,-6.3,-7.8,1.0
18.223,-5.2,-8.0,2.0
18.317,-4.0,-7.9,2.3
18.319,-2.7,-7.9,2.2
18.325,-1.7,-7.5,2.5
18.327,-1.2,-7.4,2.6
18.328,-1.1,-7.5,2.5
18.392,-0.6,-7.6,2.5
18.394,-0.0,-7.0,3.1
18.395,0.5,-6.8,4.0
18.397,0.4,-6.9,4.4
18.407,0.5,-6.7,4.7
18.52,1.0,-7.5,4.6
18.526,1.0,-6.7,4.9
18.528,0.9,-5.1,5.8
18.53,1.0,-5.3,6.8
18.618,1.0,-6.0,6.5
18.624,1.0,-7.4,7.2
18.625,0.3,-5.1,8.4
18.627,0.7,-4.3,8.2
18.629,1.6,-5.5,7.3
18.63,1.7,-5.8,6.4
18.717,1.9,-4.9,6.8
18.719,2.3,-5.3,7.5
18.72,1.9,-6.2,8.6
18.722,1.3,-6.7,9.2
18.724,1.2,-6.6,10.4
18.817,1.2,-5.3,9.4
18.819,1.4,-4.8,6.8
18.82,1.3,-3.6,6.8
18.83,1.3,-3.5,8.7
18.832,0.9,-4.9,9.7
18.921,-0.2,-4.8,9.5
18.922,-0.9,-4.3,9.1
18.924,-0.8,-2.9,8.6
18.926,0.6,-4.0,7.5
18.927,1.0,-3.2,9.0
19.017,1.5,-5.2,6.2
19.019,1.4,-3.0,8.7
19.025,1.7,-3.4,8.3
19.027,2.0,-3.3,7.8
19.028,0.3,-5.0,10.0
19.116,-0.6,-2.9,8.1
19.125,1.0,-5.3,9.3
19.128,-0.4,-4.1,9.9
19.129,1.0,-4.0,9.3
19.131,2.2,-4.1,9.2
19.218,1.8,-4.9,8.3
19.219,1.5,-4.2,8.5
19.237,2.2,-3.6,9.6
19.238,2.3,-3.4,10.1
19.24,2.6,-3.8,9.7
19.318,3.6,-5.7,8.9
19.319,4.0,-5.8,8.7
19.321,4.0,-5.5,9.2
19.323,3.2,-4.3,10.4
19.324,2.0,-5.7,9.8
19.417,2.3,-5.0,7.6
19.423,2.3,-1.9,8.6
19.425,2.4,-4.0,7.3
19.426,1.1,-3.4,7.5
19.428,1.1,-3.8,7.8
19.517,1.4,-3.6,9.6
19.519,-1.5,-4.2,11.7
19.52,-0.1,-4.0,6.5
19.522,-1.7,-1.3,10.5
19.524,0.4,-3.0,7.7
19.617,0.7,-3.0,9.0
19.63,1.0,-3.9,8.5
19.632,0.9,-3.9,8.4
19.633,0.8,-2.9,8.2
19.641,0.8,-4.4,8.7
19.717,0.9,-3.6,9.8
19.718,1.0,-3.5,10.7
19.72,0.8,-4.0,10.2
19.722,1.5,-5.3,9.5
19.723,2.2,-4.8,9.0
19.818,2.9,-4.4,9.4
19.82,3.1,-4.2,9.6
19.822,3.1,-4.7,9.7
19.826,2.7,-4.5,9.4
19.828,1.8,-3.6,10.3
19.916,1.2,-5.0,11.1
19.918,0.7,-5.0,10.2
19.919,1.0,-4.3,8.4
19.922,1.3,-3.3,7.0
20.017,1.1,-2.6,7.2
20.035,0.4,-3.3,8.4
20.043,-0.7,-4.4,8.4
20.045,-1.6,-3.7,8.4
20.046,-1.3,-3.4,8.3
20.126,-0.8,-3.8,8.1
20.127,-0.5,-3.9,8.4
20.129,-0.8,-3.2,7.8
20.13,-0.6,-3.5,7.5
20.132,-0.1,-3.4,7.6
20.241,0.4,-3.5,8.1
20.243,0.4,-3.9,8.2
20.245,0.2,-4.4,8.4
20.246,-0.1,-4.4,8.8
20.248,-0.2,-4.0,9.5
20.318,-0.5,-3.8,9.8
20.32,-0.2,-3.3,9.8
20.321,0.8,-3.8,8.9
20.323,1.8,-4.6,8.9
20.324,2.5,-5.5,8.5
20.335,2.3,-5.8,8.3
20.42,2.2,-4.7,9.0
20.421,2.3,-4.0,9.0
20.423,2.6,-3.2,9.2
20.425,2.3,-3.5,11.1
20.516,1.1,-4.8,11.4
20.518,0.3,-4.9,9.9
20.524,0.6,-4.2,7.9
20.526,1.9,-3.5,7.1
20.528,1.9,-3.3,8.7
20.621,0.4,-3.1,9.6
20.623,-0.6,-2.7,9.4
20.624,-0.5,-2.6,9.0
20.626,-0.1,-2.5,8.5
20.628,-0.1,-3.1,8.5
20.717,-0.8,-3.1,8.8
20.719,-0.9,-2.5,8.8
20.72,-0.4,-2.2,8.6
20.722,-0.1,-2.5,8.4
20.738,0.1,-3.4,8.2
20.816,0.6,-4.7,7.6
20.818,0.7,-4.3,8.2
20.819,0.7,-3.5,9.1
20.821,0.2,-3.0,9.3
20.823,0.2,-3.8,9.8
20.916,0.6,-3.5,10.6
20.918,1.1,-4.2,10.0
20.92,1.1,-4.0,9.7
20.921,1.9,-4.3,9.4
20.926,2.6,-4.1,9.6
21.017,2.6,-4.1,9.8
21.019,2.0,-3.4,10.0
21.021,1.7,-2.4,10.4
21.023,1.9,-2.8,10.3
21.024,2.1,-4.4,11.7
21.116,0.6,-5.4,12.2
21.118,-0.7,-4.0,11.4
21.119,-0.8,-3.2,9.3
21.13,0.6,-3.0,7.9
21.132,1.3,-2.6,8.5
21.216,0.8,-3.4,8.7
21.218,-0.1,-3.0,8.7
21.219,-0.2,-3.1,8.1
21.221,-0.3,-3.0,7.5
21.223,-0.4,-2.6,7.4
21.316,-0.8,-2.2,7.9
21.317,-1.1,-3.0,8.3
21.319,-1.6,-2.9,7.9
21.321,-1.1,-2.5,7.7
21.322,-2.8,-3.2,9.4
21.416,0.8,-3.2,5.4
21.418,0.7,-1.5,8.8
21.424,-1.8,-4.3,10.8
21.426,-1.4,-4.8,9.6
21.428,0.5,-3.5,9.9
21.516,0.9,-4.2,9.6
21.517,0.9,-5.0,9.4
21.537,0.9,-4.4,8.8
21.539,1.4,-4.0,9.4
21.618,1.6,-3.6,10.0
21.62,1.6,-3.5,9.7
21.622,1.7,-3.9,9.4
21.624,1.9,-4.7,9.5
21.626,1.9,-5.0,9.1
21.716,1.8,-4.6,9.4
21.718,1.3,-2.9,10.4
21.72,1.7,-4.0,11.4
21.721,1.7,-6.8,10.7
21.723,1.1,-7.3,9.9
21.816,1.1,-6.6,9.1
21.818,1.9,-5.5,8.2
21.82,2.6,-4.5,7.6
21.825,2.4,-3.8,7.1
21.827,1.9,-7.9,7.5
21.916,0.1,-0.3,8.6
21.918,-0.9,-0.7,8.8
21.937,-0.9,-1.5,7.5
21.94,-0.8,-1.6,8.3
21.942,0.0,-4.7,9.3
22.016,-0.8,-4.0,8.2
22.018,-0.5,-3.0,7.5
22.02,0.1,-1.6,7.1
22.021,1.1,-2.7,7.0
22.023,0.7,-3.0,7.1
22.116,1.1,-3.8,8.0
22.118,1.1,-4.0,8.1
22.119,1.0,-3.6,8.4
22.125,1.2,-3.2,9.4
22.126,1.0,-3.0,10.1
22.216,1.0,-4.0,10.3
22.218,1.5,-4.8,10.2
22.22,1.8,-4.4,10.2
22.221,2.0,-3.6,9.8
22.223,2.4,-3.8,10.0
22.316,2.4,-3.7,11.0
22.327,2.8,-4.7,10.8
22.329,2.5,-4.1,10.5
22.33,2.2,-3.3,10.9
22.332,1.7,-3.2,11.0
22.416,1.2,-3.8,11.2
22.417,0.5,-3.6,10.0
22.419,0.5,-3.3,7.8
22.42,1.1,-2.8,6.8
22.422,1.3,-3.0,6.2
22.517,0.9,-4.8,8.1
22.518,-0.9,-3.9,9.5
22.52,-2.7,-1.3,8.6
22.522,-5.1,-0.6,11.7
22.523,-2.8,-3.6,6.2
22.616,1.8,-2.7,8.0
22.618,1.2,0.2,11.4
22.619,-0.6,-4.9,7.5
22.621,-1.1,-4.3,7.0
22.627,0.4,-2.5,7.7
22.716,1.6,-3.3,8.6
22.718,0.6,-3.0,8.9
22.722,-1.0,-2.4,8.9
22.724,-1.3,-3.0,8.3
22.726,-0.7,-3.0,7.9
22.817,-0.4,-3.5,7.7
22.819,-1.0,-3.7,7.2
22.82,-1.8,-4.2,6.6
22.825,-2.3,-3.5,5.2
22.827,-4.7,-2.0,7.7
22.941,-4.5,-4.5,6.5
22.943,-2.1,-7.0,8.3
22.944,0.1,-5.7,10.3
22.946,2.2,-5.2,10.8
22.948,1.9,-5.4,10.8
23.019,1.2,-5.5,9.7
23.021,1.0,-6.1,8.4
23.023,0.5,-5.7,7.6
23.039,-0.1,-5.6,8.0
23.049,-0.5,-5.2,8.3
23.05,-0.1,-4.5,8.6
23.117,0.2,-4.5,8.7
23.119,0.0,-4.8,8.5
23.121,-0.0,-5.2,8.6
23.122,-0.0,-5.8,9.0
23.215,-0.1,-5.5,9.2
23.217,-0.3,-5.2,9.2
23.218,-0.8,-5.0,8.7
23.22,-0.6,-5.0,8.9
23.316,-0.2,-4.9,8.8
23.322,0.4,-5.4,8.3
23.324,-0.6,-5.8,7.6
23.325,-1.5,-6.0,7.2
23.327,-1.5,-6.3,7.5
23.416,-1.2,-6.9,7.8
23.418,-1.0,-6.4,7.7
23.419,-2.2,-4.7,7.8
23.421,-2.1,-3.7,8.6
23.437,0.9,-4.3,9.2
23.52,2.6,-10.5,11.8
23.521,-4.0,-6.3,9.6
23.523,-9.2,0.1,10.1
23.525,-8.2,-2.6,7.6
23.526,-3.9,-9.0,5.2
23.616,-6.1,-7.7,5.8
23.622,-6.4,-1.9,9.1
23.624,-3.7,-6.6,7.0
23.625,-4.9,-2.9,8.2
23.627,-4.9,-2.1,6.7
23.716,-2.7,-5.8,6.0
23.718,-3.9,-5.4,6.4
23.719,-5.6,-3.7,5.8
23.721,-5.4,-2.5,5.4
23.722,-4.6,-2.5,6.3
23.816,-4.8,-3.5,6.2
23.818,-6.0,-4.2,5.9
23.819,-6.4,-3.5,5.5
23.829,-5.7,-2.3,5.8
23.83,-5.0,-3.2,6.1
23.916,-4.5,-6.4,6.3
23.918,-6.4,-4.8,7.0
23.921,-5.5,-3.1,8.3
23.929,-5.2,-2.7,8.7
23.931,-6.6,-0.3,8.0
24.028,-6.7,-0.7,7.4
24.029,-6.0,-3.1,8.0
24.031,-6.8,-5.5,7.5
24.033,-6.8,-2.5,7.4
24.034,-6.4,-1.1,6.3
24.115,-6.9,-1.0,5.8
24.121,-7.0,-2.1,5.9
24.123,-7.3,-1.7,6.2
24.125,-6.2,-3.5,6.8
24.126,-7.1,-0.8,5.1
24.216,-6.8,-0.2,5.3
24.217,-6.8,1.1,6.0
24.231,-6.5,-1.7,7.4
24.232,-4.6,-1.2,8.4
24.234,-4.8,-3.1,8.9
24.317,-6.0,-4.0,8.4
24.318,-5.6,-3.3,8.8
24.32,-5.7,-3.3,10.1
24.322,-7.1,-3.3,10.3
24.323,-8.9,-5.9,9.5
24.416,-10.6,-3.7,7.1
24.417,-8.4,-2.3,3.9
24.419,-3.1,-0.4,1.5
24.421,-2.1,0.5,4.3
24.425,0.3,-0.6,13.6
24.516,-0.9,-5.1,9.7
24.517,-4.7,5.3,11.9
24.52,-6.0,-4.1,6.6
24.522,-4.1,-2.5,6.9
24.524,-4.5,-1.4,6.8
24.591,-4.2,-2.1,6.8
24.602,-4.9,-2.4,8.6
24.604,-7.2,-2.4,9.3
24.605,-6.8,-1.9,9.0
24.607,-5.9,-1.4,8.4
24.713,-4.7,-1.4,7.7
24.715,-3.9,-1.6,7.6
24.717,-4.6,-3.2,7.9
24.817,-5.1,-4.6,8.7
24.819,-5.9,-4.2,9.9
24.82,-7.1,-1.5,10.5
24.828,-6.2,-0.3,11.1
24.83,-6.7,-0.7,9.6
24.831,-7.5,-2.8,9.4
24.916,-9.0,-0.9,12.2
24.918,-8.2,0.3,11.4
24.92,-6.0,2.7,10.0
24.921,-5.8,4.7,9.3
24.923,-6.7,3.0,6.7
24.925,-7.3,1.6,3.9
25.016,-8.1,3.9,2.4
25.018,-6.9,2.5,1.8
25.019,-5.9,2.0,1.5
25.021,-5.4,2.1,1.2
25.115,-5.5,1.1,1.2
25.117,-5.3,1.5,1.5
25.119,-6.1,1.6,3.6
25.121,-7.9,-0.2,5.1
25.123,-9.4,-2.0,3.6
25.22,-8.7,-3.4,1.5
25.222,-6.9,-5.0,-0.3
25.223,-7.7,-4.0,-0.7
25.225,-8.7,-2.6,1.2
25.227,-9.2,-3.2,2.2
25.316,-9.7,-2.8,3.6
25.317,-9.1,-2.3,4.3
25.324,-8.0,-3.0,4.3
25.325,-8.1,-4.1,3.6
25.327,-9.8,-4.8,3.3
25.416,-11.1,-4.6,3.2
25.418,-11.5,-3.9,3.4
25.428,-11.7,-2.5,3.3
25.43,-11.6,-1.5,3.4
25.431,-11.8,-0.6,3.0
25.515,-11.5,-0.3,3.0
25.517,-11.2,-0.6,3.1
25.519,-10.7,-1.5,3.1
25.52,-11.1,-2.4,2.8
25.522,-11.2,-2.3,2.9
25.615,-10.2,-2.0,3.7
25.617,-9.3,-2.0,3.4
25.619,-9.2,-1.8,2.7
25.62,-9.0,-2.3,1.7
25.622,-8.9,-1.7,1.2
25.717,-9.2,-0.6,1.4
25.719,-10.4,-0.3,1.7
25.72,-11.1,0.4,1.7
25.723,-11.2,0.5,1.9
25.735,-11.4,0.9,1.1
25.816,-11.7,0.7,0.2
25.818,-12.4,-0.1,-0.5
25.819,-12.5,-0.6,-0.4
25.821,-11.6,-1.2,-0.6
25.823,-10.2,-2.0,-1.1
25.915,-12.0,-1.2,-2.6
25.917,-13.5,-0.7,-3.1
25.918,-12.6,-1.1,-2.1
25.924,-11.2,-2.1,-1.2
25.926,-11.4,-3.2,-1.2
26.016,-12.8,-3.2,-1.3
26.018,-12.3,-3.2,-1.1
26.02,-10.1,-3.6,-0.6
26.021,-8.7,-4.5,0.5
26.023,-8.4,-5.5,1.1
26.115,-7.7,-5.7,2.0
26.117,-6.9,-5.0,2.3
26.123,-6.3,-4.5,2.7
26.135,-6.7,-4.5,3.0
26.138,-7.5,-4.5,3.3
26.215,-7.6,-4.7,3.1
26.22,-7.9,-4.6,2.7
26.222,-8.8,-4.4,2.1
26.224,-9.4,-5.2,2.6
26.225,-9.0,-5.9,3.5
26.315,-8.7,-5.7,3.9
26.317,-9.0,-4.4,2.7
26.32,-8.9,-3.1,0.5
26.322,-9.3,-0.6,-0.5
26.329,-8.9,1.4,-1.2
26.415,-7.6,1.7,-1.6
26.417,-6.7,0.4,-0.9
26.419,-8.2,-1.3,-1.0
26.42,-9.8,-2.1,-1.4
26.422,-9.5,-1.8,-1.6
26.514,-9.0,-1.4,-1.5
26.52,-9.8,-1.5,-2.2
26.532,-10.3,-1.1,-2.5
26.535,-9.2,-0.6,-1.5
26.615,-8.9,-0.8,-1.4
26.622,-9.2,-1.4,-1.8
26.623,-9.0,-2.1,-1.7
26.625,-9.4,-2.4,-0.9
26.627,-10.2,-2.5,-0.4
26.715,-10.2,-2.2,-0.6
26.72,-9.9,-2.2,-0.8
26.722,-10.2,-2.1,-0.6
26.723,-10.5,-2.1,-0.2
26.728,-10.1,-2.2,-0.1
26.815,-10.1,-2.6,0.0
26.817,-10.9,-3.2,-0.2
26.818,-11.4,-3.5,-0.3
26.82,-12.0,-3.4,-0.3
26.822,-12.8,-3.4,-0.2
26.915,-13.1,-3.5,0.0
26.917,-13.0,-3.8,0.5
26.928,-13.2,-4.2,1.1
26.93,-12.3,-4.7,1.5
26.932,-10.3,-4.9,1.9
27.016,-9.4,-4.7,1.7
27.018,-10.2,-4.4,1.1
27.019,-11.6,-4.3,0.7
27.021,-12.5,-4.2,0.7
27.023,-11.9,-3.7,0.7
27.115,-10.0,-3.1,0.9
27.117,-9.3,-2.6,0.5
27.119,-9.7,-2.4,-0.5
27.121,-9.2,-1.3,-0.7
27.127,-9.2,-2.3,-0.8
27.219,-8.9,-2.9,-0.4
27.221,-9.1,-3.0,-0.4
27.222,-7.9,-3.7,0.1
27.224,-7.7,-3.1,-0.3
27.226,-7.9,-3.0,-0.8
27.315,-7.6,-2.8,-1.0
27.326,-7.0,-2.8,-1.0
27.328,-6.8,-3.0,-1.1
27.33,-7.6,-3.3,-1.2
27.332,-8.6,-3.5,-1.3
27.414,-9.0,-3.5,-1.3
27.416,-8.7,-3.4,-1.3
27.418,-8.8,-3.4,-1.2
27.419,-9.1,-3.2,-1.3
27.421,-8.5,-2.8,-0.9
27.515,-7.9,-2.7,-0.4
27.516,-7.8,-2.9,-0.3
27.518,-8.0,-3.2,-0.2
27.52,-8.4,-3.2,-0.2
27.523,-8.5,-3.1,0.1
27.615,-8.4,-3.1,0.4
27.617,-8.4,-3.1,0.7
27.618,-8.4,-3.0,0.8
27.62,-8.4,-2.9,0.9
27.622,-8.7,-2.7,1.1
27.715,-9.7,-2.5,1.2
27.716,-11.3,-2.3,1.1
27.718,-12.4,-2.1,1.0
27.724,-12.2,-2.0,1.3
27.726,-11.1,-1.9,1.8
27.815,-10.6,-1.9,2.2
27.816,-10.2,-2.0,2.2
27.818,-10.5,-2.3,1.8
27.82,-11.1,-2.6,1.5
27.821,-11.1,-2.8,1.5
27.916,-10.9,-2.6,1.6
27.922,-10.3,-2.4,1.7
27.924,-9.6,-2.3,1.9
27.925,-9.1,-2.2,2.1
27.927,-8.8,-2.3,2.1
28.015,-8.7,-2.3,2.1
28.016,-8.5,-2.4,2.1
28.018,-8.3,-2.4,2.0
28.02,-8.3,-2.3,1.9
28.034,-8.6,-2.3,1.7
28.115,-9.1,-2.1,1.6
28.117,-9.1,-2.0,2.1
28.118,-9.2,-2.1,2.1
28.12,-9.4,-2.5,1.9
28.122,-9.2,-2.9,1.5
28.22,-8.9,-3.3,1.3
28.222,-8.6,-3.4,1.4
28.224,-8.6,-3.6,1.4
28.225,-8.7,-3.7,1.4
28.315,-9.0,-3.5,1.7
28.317,-9.5,-3.7,1.5
28.318,-9.6,-3.9,1.1
28.32,-9.4,-3.9,0.8
28.326,-9.4,-3.5,1.1
28.415,-9.7,-3.5,0.8
28.416,-9.9,-2.9,1.0
28.418,-9.6,-2.5,0.9
28.42,-9.0,-2.9,0.9
28.431,-9.0,-3.4,0.9
28.515,-9.8,-3.5,1.1
28.516,-11.1,-3.7,0.3
28.518,-11.6,-4.0,-0.0
28.523,-11.4,-4.2,0.4
28.525,-10.8,-4.2,0.8
28.615,-9.5,-3.9,0.9
28.616,-9.1,-3.4,1.2
28.618,-10.1,-3.3,0.9
28.62,-11.2,-3.3,0.8
28.621,-11.4,-3.5,1.2
28.715,-11.5,-3.4,1.4
28.716,-11.3,-3.1,1.6
28.718,-10.8,-2.7,1.5
28.72,-10.4,-2.3,1.2
28.723,-10.1,-2.0,1.0
28.815,-9.8,-1.9,0.8
28.816,-9.3,-1.9,0.8
28.818,-9.0,-2.2,0.7
28.83,-9.0,-2.3,0.5
28.832,-8.8,-2.4,0.5
28.915,-8.8,-2.5,0.5
28.916,-8.9,-2.7,0.5
28.918,-9.0,-2.8,0.6
28.926,-8.8,-2.7,0.7
28.928,-8.8,-2.6,0.7
29.015,-8.9,-2.6,0.5
29.016,-8.9,-2.4,0.3
29.018,-9.0,-2.4,0.3
29.019,-8.8,-2.8,0.5
29.021,-8.9,-2.6,1.0
29.114,-8.8,-2.6,1.2
29.115,-9.1,-2.6,0.8
29.117,-9.7,-2.4,0.5
29.119,-10.0,-2.6,0.3
29.12,-9.8,-2.9,0.5
29.214,-9.4,-2.8,0.8
29.216,-8.9,-2.9,0.8
29.228,-8.6,-2.9,0.6
29.229,-9.1,-3.1,0.3
29.231,-9.7,-3.4,0.2
29.314,-9.8,-3.7,0.5
29.316,-9.9,-3.6,0.6
29.318,-9.7,-3.6,0.8
29.319,-9.4,-3.6,0.9
29.321,-9.4,-3.4,0.8
29.414,-9.8,-3.5,0.8
29.416,-9.9,-3.7,0.9
29.422,-10.4,-4.2,1.1
29.423,-10.8,-3.9,1.5
29.425,-10.6,-3.6,1.6
29.514,-10.4,-3.1,1.7
29.516,-10.1,-2.6,1.8
29.518,-9.9,-2.3,1.7
29.52,-9.6,-2.4,1.7
29.521,-9.5,-2.6,1.6
29.614,-9.6,-2.8,1.6
29.629,-9.5,-3.1,1.6
29.63,-9.3,-3.2,1.4
29.632,-9.1,-3.2,1.3
29.634,-8.8,-3.1,1.4
29.715,-8.7,-2.9,1.5
29.72,-8.9,-2.6,1.6
29.721,-9.2,-2.5,1.7
29.723,-9.4,-2.5,1.7
29.725,-9.5,-2.7,1.7
29.814,-9.7,-2.7,1.9
29.816,-9.7,-2.7,1.8
29.817,-9.6,-2.6,1.8
29.819,-9.5,-2.6,1.6
29.914,-9.7,-2.6,1.6
29.921,-9.7,-2.0,1.8
29.927,-9.6,-2.6,1.3
29.928,-9.7,-2.3,1.6
29.93,-9.5,-2.2,1.6
30.014,-9.4,-2.2,1.5
30.026,-9.4,-2.0,1.4
30.037,-9.9,-1.9,1.0
30.038,-9.7,-1.5,0.8
30.04,-8.7,-1.6,1.0
30.114,-8.7,-2.1,1.1
30.116,-9.4,-2.7,1.0
30.118,-9.7,-3.1,0.9
30.119,-9.6,-3.1,0.7
30.121,-10.0,-3.1,0.6
30.214,-10.8,-3.0,0.7
30.216,-10.8,-2.9,0.9
30.218,-10.1,-2.6,0.8
30.219,-9.3,-2.6,0.6
30.221,-8.6,-2.6,0.5
30.314,-8.2,-2.6,0.5
30.316,-8.2,-2.6,0.7
30.318,-8.6,-2.8,0.7
30.319,-9.2,-2.8,0.7
30.321,-10.0,-2.8,0.5
30.414,-10.6,-2.9,0.2
30.417,-10.3,-3.0,0.0
30.419,-9.8,-3.2,0.1
30.422,-9.5,-3.4,0.1
30.424,-9.3,-3.5,0.1
30.514,-9.1,-3.6,0.1
30.516,-9.0,-4.0,0.2
30.518,-8.8,-4.3,0.2
30.519,-8.6,-4.4,0.4
30.521,-8.9,-4.3,0.5
30.614,-9.2,-4.2,0.5
30.616,-9.4,-3.9,0.4
30.618,-9.7,-3.6,0.5
30.619,-10.0,-3.2,0.4
30.621,-9.9,-2.8,0.4
30.714,-9.7,-2.7,0.5
30.719,-9.9,-2.9,0.5
30.721,-10.4,-3.1,0.5
30.722,-10.4,-3.1,0.5
30.734,-9.9,-3.3,0.4
30.814,-9.9,-3.1,0.2
30.816,-9.9,-2.8,0.3
30.817,-9.6,-2.7,0.3
30.824,-9.7,-2.6,0.3
30.825,-9.9,-2.7,0.3
30.916,-10.0,-2.8,0.5
30.918,-10.6,-3.0,0.4
30.92,-10.9,-2.8,0.1
30.921,-10.3,-2.5,0.0
30.923,-9.3,-2.1,0.6
31.014,-8.9,-2.2,0.8
31.016,-9.2,-1.9,0.7
31.017,-8.4,2.7,2.1
31.019,-9.5,-0.3,3.0
31.021,-9.4,-5.3,-0.0
31.115,-9.2,-6.0,1.2
31.117,-10.6,-7.6,1.6
31.12,-8.2,-6.6,-0.0
31.139,-8.4,-8.3,2.4
31.141,-8.1,-6.5,2.2
31.214,-8.8,-5.8,2.1
31.215,-8.7,-6.0,1.8
31.217,-8.6,-6.6,0.8
31.218,-8.7,-7.7,0.6
31.22,-8.7,-8.4,0.8
31.314,-8.6,-7.7,1.6
31.316,-8.1,-7.3,2.0
31.317,-7.4,-7.4,1.7
31.319,-7.1,-7.7,1.3
31.321,-6.8,-8.2,1.4
31.415,-6.5,-8.4,2.2
31.416,-6.5,-8.4,2.5
31.418,-6.4,-8.4,2.3
31.42,-6.0,-8.3,2.4
31.425,-5.5,-8.7,2.2
31.518,-5.6,-9.1,2.5
31.52,-5.6,-8.9,3.0
31.539,-5.3,-8.5,3.5
31.54,-4.8,-8.5,3.3
31.615,-4.4,-8.6,3.1
31.617,-4.1,-8.2,3.4
31.619,-4.2,-8.9,3.1
31.62,-4.6,-9.4,3.4
31.622,-4.2,-9.2,4.1
31.714,-3.6,-8.9,4.0
31.716,-3.3,-8.2,2.9
31.717,-3.2,-8.2,2.6
31.725,-3.2,-7.9,3.1
31.726,-3.5,-7.6,3.8
31.816,-3.3,-7.3,4.4
31.819,-2.4,-7.5,4.4
31.82,-2.5,-8.0,4.1
31.822,-2.6,-6.6,4.8
31.824,-2.1,-5.3,4.9
31.914,-0.9,-7.1,5.4
31.916,-0.9,-7.7,5.6
31.93,-0.7,-7.1,4.9
31.932,0.0,-7.0,4.3
31.934,1.1,-7.2,4.5
32.014,1.6,-7.9,5.0
32.019,1.2,-8.6,6.1
32.02,0.1,-8.5,5.3
32.022,-1.7,-7.1,5.3
32.024,-2.2,-8.8,8.0
32.114,-10.1,-6.9,10.4
32.115,-5.3,-1.9,3.2
32.117,0.4,-6.1,4.0
32.119,-3.6,-7.2,4.0
32.12,-3.4,-7.4,5.7
32.214,2.9,-6.9,9.4
32.215,4.7,-5.5,10.3
32.217,4.0,-7.9,9.5
32.219,1.3,-7.8,8.7
32.22,2.9,-9.1,10.3
32.318,3.3,-8.3,9.6
32.329,2.5,-7.1,7.5
32.332,1.4,-7.7,5.0
32.334,-0.5,-8.1,5.1
32.336,-1.4,-7.9,6.7
32.414,-1.1,-2.2,8.7
32.416,1.1,-5.2,7.7
32.418,0.4,-7.0,6.1
32.421,0.3,-8.7,6.8
32.422,-0.7,-7.6,8.6
32.514,-1.8,-5.8,9.3
32.516,-2.0,-7.1,8.1
32.517,-0.2,-7.7,7.2
32.519,1.3,-7.6,7.6
32.521,1.2,-7.6,7.6
32.614,-0.1,-5.1,7.9
32.616,-0.4,-4.7,8.0
32.617,0.4,-5.9,8.3
32.619,0.5,-6.3,8.4
32.621,-0.2,-6.0,8.9
32.713,-0.4,-6.3,9.1
32.715,0.0,-7.1,9.6
32.716,0.3,-7.2,9.4
32.718,0.6,-6.9,9.0
32.72,0.6,-5.7,9.0
32.814,1.3,-5.7,9.9
32.815,1.1,-5.3,10.2
32.817,0.6,-5.0,9.9
32.819,0.4,-4.2,9.1
32.82,0.4,-3.7,8.3
32.914,0.5,-3.7,9.1
32.915,-0.0,-4.1,10.2
32.917,-1.0,-3.8,10.3
32.923,-1.4,-3.3,9.4
32.925,-1.1,-2.9,8.3
33.014,-0.6,-2.5,7.3
33.021,-0.3,-3.3,7.1
33.022,-0.6,-3.1,6.3
33.024,-0.4,-2.7,6.2
33.037,0.6,-2.5,6.8
33.113,1.3,-2.9,7.5
33.115,1.3,-3.2,7.3
33.117,0.7,-3.7,7.3
33.118,0.4,-4.3,7.9
33.12,0.8,-4.4,8.5
33.213,1.1,-4.0,9.4
33.214,1.0,-3.6,9.8
33.216,0.6,-3.7,10.2
33.218,0.5,-4.2,10.3
33.313,1.0,-4.4,9.9
33.315,1.7,-4.9,9.8
33.317,1.8,-5.5,9.6
33.318,1.8,-5.5,10.4
33.32,1.4,-4.5,11.1
33.413,1.0,-3.8,10.0
33.415,1.3,-3.3,8.8
33.417,2.2,-3.1,7.9
33.418,2.2,-3.6,8.0
33.43,2.1,-3.6,8.5
33.513,1.8,-3.7,8.6
33.515,1.5,-3.6,8.4
33.517,1.5,-3.7,7.9
33.518,1.3,-3.3,7.9
33.52,1.0,-3.3,7.5
33.614,1.2,-3.2,7.4
33.616,1.6,-3.5,7.3
33.618,2.0,-3.2,7.2
33.619,2.2,-3.6,7.3
33.621,2.3,-4.1,7.8
33.715,2.2,-3.9,9.2
33.716,2.0,-5.2,9.7
33.718,1.3,-5.5,10.0
33.72,1.2,-4.1,12.5
33.721,2.2,-4.0,12.5
33.813,3.2,-4.4,11.5
33.815,4.2,-3.7,10.7
33.816,4.8,-2.9,10.7
33.829,4.6,-3.7,10.6
33.831,4.6,-3.8,11.5
33.917,3.3,-3.4,10.8
33.918,2.2,-2.4,9.8
33.92,1.7,-2.0,8.1
33.922,2.4,-2.2,7.6
33.923,2.7,-1.9,8.0
34.012,2.1,-1.8,8.0
34.014,1.4,-1.3,8.4
34.016,0.8,-1.1,8.5
34.017,0.7,-1.3,8.2
34.019,0.7,-1.1,8.1
34.113,0.8,-1.6,7.7
34.115,1.2,-2.0,7.2
34.116,1.9,-2.3,6.9
34.118,2.6,-2.7,6.8
34.12,2.8,-2.5,6.8
34.238,2.7,-2.1,7.1
34.24,2.6,-2.1,8.1
34.253,2.6,-2.2,9.5
34.255,2.5,-2.4,10.8
34.265,2.3,-2.1,10.8
34.343,2.4,-2.2,11.2
34.345,2.4,-3.0,11.2
34.346,2.0,-3.0,11.2
34.348,2.7,-3.0,11.5
34.35,3.4,-3.4,10.9
34.354,3.6,-3.1,11.1
34.411,3.2,-2.8,11.4
34.413,2.6,-3.2,11.1
34.415,2.1,-2.9,9.8
34.416,2.4,-3.1,8.1
34.513,2.9,-2.0,8.3
34.519,2.6,-1.4,8.1
34.52,2.3,-1.6,7.8
34.522,2.3,-1.6,8.2
34.524,2.2,-1.5,8.5
34.614,1.8,-1.5,8.7
34.626,1.6,-0.9,7.8
34.629,1.8,-0.8,6.9
34.631,2.3,-1.2,7.0
34.633,2.8,-2.0,7.2
34.713,3.1,-1.8,8.0
34.715,2.9,-1.3,9.0
34.726,2.5,-1.2,10.3
34.728,2.4,-1.0,10.6
34.73,2.8,-1.0,10.5
34.813,3.3,-1.4,10.9
34.815,3.7,-1.5,10.8
34.816,3.9,-1.7,10.6
34.823,4.0,-1.5,10.5
34.824,4.2,-1.4,10.9
34.912,4.3,-2.0,11.0
34.914,3.7,-2.7,14.1
34.92,1.4,-2.5,14.5
34.921,0.3,-2.3,11.4
35.013,1.0,-3.4,8.3
35.039,1.4,-2.9,7.2
35.041,2.0,-1.9,7.1
35.044,1.5,-1.2,7.1
35.056,1.8,-0.2,6.8
35.13,2.2,0.3,6.8
35.132,1.7,0.0,6.7
35.133,1.1,-0.2,6.8
35.135,0.8,-0.1,7.2
35.14,0.7,-0.3,7.4
35.213,0.6,-0.4,7.5
35.219,0.5,-1.8,7.2
35.221,0.6,-2.0,7.5
35.222,0.8,-1.7,8.3
35.224,0.7,-1.5,9.0
35.339,0.4,-1.7,9.8
35.34,0.4,-2.6,10.9
35.342,0.3,-2.0,10.1
35.344,1.2,-1.2,10.4
35.345,1.8,-1.6,10.0
35.443,2.0,-2.9,9.5
35.445,2.4,-3.1,9.0
35.446,2.9,-3.3,8.6
35.448,2.4,-1.7,8.6
35.449,2.2,-2.7,9.6
35.451,1.3,-3.7,11.3
35.512,1.0,-3.6,11.6
35.513,1.6,-3.5,11.4
35.515,1.7,-2.2,10.6
35.521,0.6,-2.1,9.3
35.613,-0.6,-5.0,9.0
35.615,-1.1,-7.0,7.8
35.617,-2.4,-6.2,7.1
35.618,-2.5,-7.7,6.0
35.62,-4.6,-3.0,8.5
35.715,-4.2,-3.4,9.9
35.717,-4.9,-0.1,10.6
35.719,-4.0,-2.5,8.7
35.72,-3.7,-1.3,7.4
35.731,-2.4,-0.5,7.0
35.813,-1.5,-3.3,6.4
35.815,-2.2,-3.2,6.8
35.82,-2.2,-2.7,7.2
35.822,-1.8,-3.0,7.2
35.823,-2.4,-3.4,7.0
35.913,-3.2,-3.5,6.4
35.915,-3.4,-0.8,8.3
35.916,-2.7,-3.1,8.3
35.919,-4.2,-1.1,8.0
35.92,-3.7,-1.9,9.1
36.024,-4.3,-3.6,8.5
36.026,-5.6,-4.8,9.8
36.028,-7.5,-3.6,9.0
36.035,-5.8,-2.1,9.7
36.036,-3.2,-3.8,9.0
36.113,-3.3,-3.6,7.9
36.114,-4.0,-4.1,7.2
36.12,-3.7,-3.9,7.0
36.136,-3.2,-3.2,6.6
36.138,-3.4,-3.5,6.4
36.213,-4.0,-4.2,7.1
36.214,-5.3,-3.8,6.5
36.216,-8.4,-6.8,14.1
36.221,-11.9,-5.8,1.7
36.223,-10.2,-0.7,7.4
36.313,-5.0,-2.2,6.7
36.314,-5.4,-1.8,8.8
36.316,-3.6,-4.0,8.4
36.318,-2.6,-4.7,8.7
36.319,-2.7,-4.7,8.7
36.413,-3.5,-4.6,8.2
36.414,-5.2,-2.9,8.2
36.416,-6.2,-1.7,8.1
36.418,-5.4,-2.9,8.2
36.419,-4.0,-3.4,8.4
36.512,-3.9,-3.2,8.5
36.514,-4.4,-3.4,8.0
36.525,-5.0,-3.0,7.9
36.532,-5.0,-3.2,7.5
36.614,-5.1,-3.2,7.5
36.619,-5.2,-3.4,7.5
36.621,-5.1,-3.6,7.6
36.623,-5.0,-3.3,7.8
36.624,-5.2,-3.4,7.6
36.713,-5.2,-3.3,7.7
36.715,-5.3,-3.3,7.6
36.72,-5.5,-3.3,7.4
36.722,-5.6,-2.9,7.6
36.723,-5.2,-2.4,7.7
36.813,-4.9,-2.0,8.1
36.814,-5.0,-2.3,7.3
36.816,-5.1,-3.2,8.5
36.818,-4.6,-3.1,8.8
36.819,-5.1,-3.0,7.7
36.914,-4.8,-2.8,9.2
36.917,-5.4,-2.3,8.9
36.929,-5.4,-2.1,9.0
36.93,-5.0,-2.0,8.5
36.932,-4.6,-2.1,8.1
37.013,-4.5,-2.4,8.1
37.014,-4.3,-2.9,8.0
37.016,-4.3,-3.2,8.4
37.018,-4.3,-3.1,9.3
37.026,-4.7,-3.1,8.8
37.113,-4.6,-3.1,8.3
37.114,-4.3,-3.5,8.0
37.116,-3.9,-4.4,8.1
37.117,-3.9,-4.2,8.2
37.125,-3.2,-4.1,8.4
37.213,-3.1,-4.6,8.3
37.214,-3.4,-5.3,8.1
37.22,-3.7,-5.8,7.8
37.222,-3.9,-6.1,7.3
37.223,-4.2,-6.6,7.2
37.319,-4.3,-6.8,7.1
37.33,-4.3,-6.6,6.8
37.332,-4.2,-6.1,7.2
37.333,-4.0,-6.3,7.1
37.336,-4.1,-6.0,6.9
37.412,-3.7,-5.9,7.0
37.413,-2.9,-5.6,7.0
37.419,-2.4,-5.2,7.2
37.421,-2.1,-5.3,6.9
37.422,-2.1,-5.4,6.5
37.512,-1.7,-6.6,6.7
37.514,-1.5,-7.2,6.5
37.516,-1.1,-7.7,6.4
37.517,-0.9,-8.0,6.2
37.519,-0.8,-8.0,6.2
37.614,-0.4,-8.1,6.3
37.616,0.0,-9.3,5.7
37.623,0.4,-9.1,5.7
37.625,0.8,-8.7,5.7
37.626,1.1,-8.4,6.1
37.712,1.2,-8.4,6.1
37.714,0.6,-6.3,5.5
37.716,0.2,-4.0,6.8
37.717,-0.2,-3.4,7.8
37.719,-1.2,-2.3,8.6
37.816,-1.8,-0.5,9.1
37.818,-2.2,-0.0,9.4
37.819,-2.7,-0.5,9.8
37.821,-3.1,-0.4,9.7
37.822,-2.6,-0.1,9.5
37.913,-2.0,0.5,9.4
37.915,-1.8,0.9,9.5
37.916,-1.9,1.5,9.5
37.918,-1.4,1.3,9.5
37.92,-1.4,1.1,9.5
38.012,-1.7,1.7,9.4
38.014,-1.9,2.0,9.3
38.016,-2.0,2.2,8.7
38.017,-0.8,1.8,9.2
38.03,-1.6,1.5,9.3
38.112,-0.4,1.1,9.3
38.114,0.3,1.5,9.9
38.116,0.0,1.4,9.5
38.117,-0.9,1.6,9.3
38.119,-0.2,1.7,9.5
38.237,0.3,1.8,9.5
38.239,0.1,1.9,9.1
38.24,0.6,1.9,9.2
38.242,0.3,2.0,9.1
38.312,0.1,2.3,9.2
38.314,0.1,2.1,9.1
38.316,-0.3,2.3,9.3
38.317,-0.2,2.2,9.5
38.32,-0.2,2.2,9.9
38.412,-0.4,2.2,10.0
38.414,-0.3,2.3,10.4
38.416,-0.4,2.6,11.1
38.417,-0.7,2.9,11.5
38.429,-0.7,3.4,12.3
38.512,-0.1,2.8,11.9
38.514,-0.3,2.6,11.0
38.516,0.5,3.1,11.0
38.517,-0.6,3.1,10.9
38.522,-0.3,2.9,9.8
38.615,0.8,3.4,9.0
38.618,0.8,4.0,8.6
38.62,2.2,3.6,8.3
38.622,1.7,3.4,7.5
38.624,1.1,3.1,7.0
38.712,0.4,3.8,7.0
38.714,0.4,4.3,7.1
38.716,1.0,4.2,6.9
38.717,0.6,4.3,6.5
38.719,0.3,4.5,6.3
38.813,0.4,5.1,6.9
38.814,0.0,5.8,7.2
38.816,-0.2,5.1,7.7
38.835,-0.6,5.5,8.0
38.838,-0.9,5.5,8.0
38.912,-0.7,5.0,7.8
38.916,-0.3,5.2,8.0
38.917,-0.2,5.2,8.0
38.92,-0.0,5.5,8.0
38.922,-0.3,6.0,8.1
39.017,-0.2,6.1,8.0
39.019,-0.0,5.8,7.7
39.03,-0.2,5.8,7.6
39.032,-0.1,5.9,7.0
39.033,-0.2,5.7,9.6
