vertical_Accel_x,vertical_Accel_y,vertical_Accel_z,accel_time_list
-0.991,5.957,7.938,0.0
-0.858,5.349,8.366,0.001
-0.302,5.089,8.992,0.003
-0.755,4.672,9.381,0.102
-2.606,5.866,8.377,0.104
1.36,4.462,7.942,0.105
-0.779,4.725,8.483,0.107
-0.781,6.113,8.375,0.109
0.142,5.249,8.266,0.11
-0.608,5.155,8.27,0.201
-0.549,5.006,8.204,0.207
-0.942,5.151,8.134,0.209
-0.689,5.268,8.245,0.211
-0.187,4.879,8.053,0.212
-0.462,4.326,8.451,0.302
-0.379,4.925,8.083,0.303
-0.366,5.104,7.236,0.305
-0.547,4.617,6.811,0.307
-0.517,4.398,7.332,0.308
-0.366,4.904,7.536,0.402
-0.402,5.289,7.392,0.404
-0.626,5.042,6.994,0.405
-0.481,4.613,6.575,0.407
-0.358,3.949,6.366,0.409
-0.183,2.996,6.779,0.505
-0.435,2.908,6.643,0.507
-1.082,1.551,7.033,0.508
-1.493,1.287,7.381,0.51
-0.765,2.792,7.257,0.512
0.069,0.1,7.446,0.601
-0.092,-1.5,7.838,0.603
-0.538,-1.3,9.108,0.605
-1.277,0.0,9.415,0.606
-1.6,-1.1,8.9,0.608
-1.824,-1.312,8.925,0.701
-2.2,-1.2,9.4,0.703
-2.819,-3.262,9.524,0.704
-3.233,-4.353,9.307,0.706
-3.481,-4.078,8.856,0.719
-1.031,-6.82,7.461,0.811
-1.755,-6.637,8.01,0.813
-3.092,-6.961,7.284,0.814
-4.449,-8.833,4.698,0.816
-4.412,-10.708,3.224,0.818
1.667,-12.062,-1.423,0.901
0.395,-11.637,-1.275,0.902
0.059,-11.429,-2.058,0.904
0.421,-11.628,-2.356,0.906
0.799,-12.007,-2.415,0.907
2.375,-7.947,-9.414,1.001
2.363,-7.413,-9.649,1.004
2.26,-7.054,-9.382,1.006
2.224,-7.167,-8.231,1.011
2.414,-7.506,-7.476,1.012
2.513,-8.328,-6.03,1.101
2.426,-8.657,-5.46,1.102
2.951,-9.038,-5.074,1.104
3.585,-9.196,-4.823,1.123
3.275,-9.119,-5.387,1.125
3.984,-7.864,-7.155,1.201
4.121,-7.661,-7.154,1.202
3.721,-7.341,-7.414,1.204
3.263,-7.283,-6.561,1.206
3.005,-7.605,-5.868,1.207
2.847,-7.647,-5.716,1.301
2.589,-7.669,-5.923,1.304
2.295,-7.815,-6.072,1.306
1.932,-8.012,-6.371,1.307
1.9,-7.94,-6.58,1.309
0.875,-8.719,-5.487,1.401
0.655,-8.689,-5.468,1.407
0.647,-8.387,-4.979,1.408
0.543,-8.336,-4.685,1.41
0.243,-8.336,-4.485,1.412
0.211,-8.553,-3.983,1.501
0.425,-8.381,-4.413,1.502
0.604,-8.451,-3.794,1.514
0.655,-8.489,-3.668,1.525
0.802,-8.375,-4.247,1.527
0.87,-8.292,-4.645,1.6
0.819,-8.255,-4.772,1.602
0.909,-8.277,-4.736,1.603
1.17,-8.292,-4.845,1.605
1.315,-8.204,-4.877,1.701
1.457,-8.264,-4.715,1.708
1.508,-8.302,-4.589,1.71
1.704,-8.251,-4.494,1.712
1.783,-8.221,-4.675,1.713
1.772,-8.168,-4.892,1.8
1.645,-8.011,-5.032,1.802
1.583,-7.921,-5.375,1.804
1.647,-7.987,-5.579,1.805
1.687,-7.972,-5.67,1.807
1.687,-7.972,-5.67,1.9
1.647,-7.987,-5.579,1.902
1.592,-8.098,-5.511,1.913
1.632,-8.083,-5.602,1.915
1.672,-8.068,-5.692,1.917
1.542,-8.06,-5.638,2.0
1.557,-7.964,-5.615,2.008
1.557,-7.964,-5.615,2.01
1.517,-7.979,-5.525,2.011
1.477,-7.994,-5.434,2.013
1.517,-7.979,-5.525,2.1
1.438,-8.009,-5.343,2.102
1.477,-7.994,-5.434,2.103
1.477,-7.994,-5.434,2.11
1.347,-7.987,-5.379,2.111
1.438,-8.009,-5.343,2.201
1.438,-8.009,-5.343,2.203
1.528,-8.032,-5.308,2.209
1.423,-8.106,-5.366,2.211
1.553,-8.113,-5.421,2.212
1.538,-8.209,-5.443,2.3
1.553,-8.113,-5.421,2.324
1.674,-7.943,-5.34,2.326
1.698,-8.025,-5.453,2.328
1.774,-8.143,-5.44,2.329
1.719,-8.255,-5.372,2.417
1.534,-8.358,-5.249,2.419
1.368,-8.217,-5.298,2.424
1.292,-8.098,-5.311,2.426
1.217,-7.979,-5.325,2.427
1.247,-7.787,-5.279,2.5
1.157,-7.764,-5.315,2.502
1.157,-7.764,-5.315,2.503
1.353,-7.713,-5.221,2.505
1.519,-7.855,-5.172,2.506
1.594,-7.974,-5.158,2.6
1.725,-7.981,-5.213,2.602
1.674,-7.943,-5.34,2.61
1.674,-7.943,-5.34,2.611
1.674,-7.943,-5.34,2.613
1.583,-7.921,-5.375,2.7
1.623,-7.906,-5.466,2.702
1.677,-7.794,-5.534,2.708
1.638,-7.809,-5.443,2.709
1.623,-7.906,-5.466,2.711
1.583,-7.921,-5.375,2.8
1.658,-8.04,-5.362,2.801
1.658,-8.04,-5.362,2.803
2.057,-8.264,-5.115,2.805
2.092,-8.398,-5.011,2.806
2.028,-8.332,-4.808,2.9
1.977,-8.294,-4.934,2.903
2.083,-8.221,-4.875,2.904
2.055,-8.289,-4.568,2.906
1.726,-8.357,-4.06,2.908
1.756,-6.976,-5.838,3.0
1.533,-6.653,-6.427,3.002
1.878,-6.458,-7.129,3.01
2.022,-6.582,-7.591,3.011
2.044,-6.924,-7.362,3.024
0.812,-6.652,-8.228,3.1
0.734,-7.065,-8.112,3.102
0.696,-6.616,-7.657,3.104
0.715,-6.041,-7.235,3.105
0.559,-5.762,-7.039,3.107
0.379,-6.183,-7.451,3.2
0.304,-6.884,-7.843,3.202
0.338,-7.25,-7.654,3.203
0.467,-6.831,-7.024,3.205
0.509,-6.664,-6.921,3.211
1.235,-5.891,-7.804,3.3
1.478,-5.63,-7.535,3.302
2.513,-5.422,-7.039,3.304
2.257,-5.261,-6.37,3.305
0.58,-3.286,-7.196,3.4
0.608,-2.325,-7.722,3.402
0.955,-1.878,-8.751,3.403
1.102,-1.831,-9.38,3.405
1.102,-1.831,-9.38,3.417
2.17,-0.007,-9.341,3.5
2.156,-0.111,-9.511,3.502
2.296,-0.326,-9.393,3.503
2.552,-0.537,-9.404,3.505
2.726,-0.619,-9.252,3.51
2.685,-0.804,-9.37,3.606
2.804,-0.874,-9.807,3.608
2.815,-0.896,-10.03,3.61
2.807,-1.148,-10.815,3.612
2.878,-1.656,-12.156,3.613
3.237,-2.241,-13.474,3.7
4.011,-2.722,-14.422,3.702
3.4,-3.0,-14.2,3.703
2.778,-3.056,-13.056,3.705
2.419,-3.17,-12.837,3.707
2.011,-3.522,-12.822,3.8
1.733,-3.267,-12.367,3.806
1.393,-2.852,-11.885,3.807
1.378,-1.956,-11.256,3.819
1.496,-1.026,-10.893,3.822
1.385,-0.604,-10.67,3.9
0.737,-0.841,-11.174,3.907
-0.148,-1.637,-11.904,3.908
-0.704,-2.326,-12.493,3.91
-0.996,-2.674,-12.607,3.912
-1.403,-3.812,-11.496,4.0
-1.237,-3.208,-10.204,4.002
-0.917,-2.448,-8.804,4.003
-0.508,-1.837,-7.687,4.005
-0.305,-1.624,-6.991,4.007
0.406,-2.0,-6.676,4.104
0.271,-2.1,-6.718,4.105
0.271,-2.4,-6.718,4.107
0.494,-2.4,-6.724,4.109
0.718,-2.4,-6.729,4.11
0.003,-2.753,-7.003,4.2
0.097,-3.247,-7.297,4.202
0.032,-3.543,-7.432,4.213
0.015,-3.963,-7.615,4.225
-0.032,-4.657,-8.368,4.228
0.086,-6.886,-7.455,4.304
-0.107,-7.493,-7.777,4.306
-0.068,-8.132,-8.643,4.307
0.138,-8.238,-9.248,4.309
0.225,-8.125,-9.421,4.311
1.03,-6.842,-10.742,4.4
1.128,-6.223,-10.523,4.406
1.688,-5.407,-9.607,4.408
2.795,-5.063,-9.063,4.409
3.509,-5.374,-8.774,4.411
3.067,-3.833,-9.267,4.504
2.053,-4.0,-8.688,4.506
1.91,-3.767,-9.027,4.507
2.622,-4.367,-9.18,4.509
3.292,-4.667,-9.198,4.511
2.04,-3.28,-9.8,4.601
1.763,-2.17,-9.339,4.612
1.317,-0.852,-9.396,4.613
1.249,0.194,-9.048,4.621
0.809,0.774,-8.148,4.622
1.033,2.686,-7.033,4.7
1.298,2.358,-6.698,4.705
1.883,1.921,-6.783,4.706
1.98,1.108,-6.88,4.708
2.231,0.344,-7.231,4.71
2.237,-0.641,-8.374,4.8
2.422,-1.444,-9.544,4.801
2.27,-2.207,-10.241,4.803
2.263,-2.959,-11.426,4.805
1.759,-3.885,-13.519,4.806
1.429,-2.498,-15.329,4.899
1.429,-1.798,-15.629,4.901
2.044,-0.662,-14.644,4.902
2.441,0.225,-13.641,4.904
1.749,2.843,-12.749,5.0
1.284,3.19,-11.684,5.01
1.053,3.271,-10.553,5.011
1.308,2.755,-10.208,5.013
1.422,1.651,-10.522,5.015
2.253,-2.788,-9.861,5.1
1.679,-3.373,-9.372,5.102
1.158,-3.165,-9.183,5.104
0.805,-2.517,-8.802,5.109
0.605,-1.937,-8.242,5.11
0.606,-2.5,-7.576,5.175
0.602,-2.333,-7.725,5.176
0.335,-2.1,-7.659,5.178
0.078,-1.533,-7.22,5.18
-0.086,-1.233,-6.678,5.181
-0.12,-0.967,-6.245,5.298
-0.024,-0.8,-5.994,5.319
0.069,-0.767,-5.892,5.321
0.288,-0.9,-6.047,5.323
0.405,-1.694,-5.833,5.401
0.532,-1.756,-5.633,5.411
0.586,-2.019,-5.8,5.412
0.475,-2.515,-6.433,5.419
0.52,-2.852,-6.967,5.421
1.028,-3.101,-7.367,5.423
1.835,-3.811,-8.2,5.5
2.495,-4.606,-9.667,5.501
2.872,-5.499,-10.533,5.508
2.584,-6.303,-11.1,5.509
2.194,-7.529,-12.233,5.511
-0.499,-10.296,-11.136,5.6
-0.174,-11.097,-11.527,5.602
0.621,-11.217,-11.849,5.603
1.174,-10.203,-11.573,5.605
1.225,-9.301,-11.691,5.607
3.263,-10.223,-9.141,5.701
3.468,-9.088,-7.829,5.703
2.405,-8.725,-6.208,5.705
0.626,-9.646,-5.682,5.706
-0.184,-9.296,-5.965,5.724
0.063,-8.083,-6.161,5.801
-0.095,-7.925,-6.608,5.803
-0.037,-7.423,-6.541,5.809
0.163,-6.623,-6.441,5.811
0.384,-6.084,-6.195,5.812
0.367,-4.887,-6.293,5.9
0.133,-4.413,-5.607,5.901
0.211,-3.991,-4.896,5.903
0.544,-3.964,-4.582,5.905
0.611,-4.571,-3.836,5.906
-0.162,-5.373,-3.007,6.006
-0.492,-5.589,-2.544,6.008
-0.721,-6.191,-2.836,6.01
-0.538,-7.027,-3.893,6.011
-0.302,-7.828,-4.789,6.013
-0.336,-7.799,-5.404,6.099
-0.223,-7.519,-5.625,6.101
0.025,-7.253,-5.886,6.106
0.222,-6.995,-5.82,6.12
0.648,-7.335,-5.761,6.122
1.123,-8.106,-5.166,6.2
1.072,-8.068,-5.292,6.202
0.745,-8.111,-5.332,6.204
0.719,-8.155,-5.572,6.205
0.955,-8.089,-5.568,6.207
-0.249,-9.045,-4.255,6.303
-0.075,-9.173,-4.727,6.305
-0.171,-9.453,-5.047,6.306
-0.19,-9.751,-5.249,6.308
-0.559,-10.894,-5.606,6.309
1.504,-13.204,-3.139,6.399
2.151,-14.251,-3.21,6.401
2.847,-14.747,-3.071,6.403
3.422,-14.422,-2.916,6.405
3.251,-12.951,-2.21,6.406
3.147,-12.069,2.468,6.499
1.584,-12.402,2.315,6.501
-0.292,-13.399,0.642,6.512
-1.265,-13.821,0.855,6.514
-1.461,-13.57,1.726,6.515
-2.753,-11.588,5.678,6.599
-2.086,-10.457,5.971,6.6
-1.388,-8.949,5.39,6.602
-1.312,-7.551,4.91,6.604
-2.131,-4.508,6.523,6.699
-2.054,-5.038,5.715,6.701
-2.2,-5.8,5.1,6.703
-2.4,-6.5,4.6,6.704
-2.385,-6.546,3.938,6.706
-1.68,-7.067,2.112,6.799
-1.667,-6.888,1.98,6.801
-1.892,-6.547,2.345,6.803
-1.82,-7.133,2.388,6.81
-1.522,-8.496,1.927,6.812
-0.778,-9.404,2.273,6.899
-0.404,-8.727,3.678,6.907
-0.394,-6.91,5.384,6.918
-0.218,-5.969,6.749,6.92
0.229,-5.514,7.557,6.922
-0.468,-1.582,9.938,6.999
-0.025,-2.385,10.687,7.001
0.266,-2.441,11.469,7.003
0.093,-2.433,12.275,7.008
-0.511,-2.58,13.09,7.009
0.656,-2.256,14.022,7.099
0.378,-2.978,14.411,7.101
0.53,-3.163,13.919,7.103
0.9,-2.6,12.4,7.105
1.426,-2.393,11.104,7.106
1.2,-6.1,9.1,7.2
0.923,-6.069,8.608,7.202
0.346,-6.338,7.615,7.203
0.938,-6.015,7.546,7.205
2.408,-7.723,7.669,7.207
5.015,-6.494,7.287,7.299
3.977,-6.596,6.291,7.311
3.157,-5.947,5.794,7.314
3.102,-5.428,5.155,7.316
3.266,-6.157,4.015,7.325
2.693,-6.348,1.412,7.399
2.116,-5.479,1.52,7.4
2.247,-5.287,1.597,7.403
2.818,-5.504,1.301,7.406
2.041,-5.335,1.809,7.409
1.622,-5.21,2.685,7.499
2.104,-6.474,2.313,7.501
2.191,-6.812,2.554,7.506
1.839,-6.785,2.677,7.507
1.787,-7.478,2.761,7.509
3.2,-8.02,2.14,7.599
3.2,-8.5,2.5,7.601
3.48,-9.004,2.828,7.602
3.56,-9.448,3.236,7.604
3.34,-10.032,3.624,7.606
0.674,-11.462,3.515,7.7
0.064,-12.496,4.013,7.701
0.021,-14.032,4.104,7.703
0.513,-15.319,4.143,7.704
1.045,-15.417,3.949,7.707
2.836,-14.105,4.139,7.8
3.416,-13.205,3.199,7.801
3.401,-12.024,2.735,7.809
3.197,-10.829,2.594,7.81
2.892,-10.11,2.818,7.812
1.539,-9.655,4.251,7.899
1.524,-8.998,4.58,7.901
1.28,-8.518,4.584,7.907
1.292,-7.967,4.273,7.909
1.222,-7.29,3.798,7.91
2.063,-5.898,4.575,8.003
1.874,-5.784,3.911,8.005
2.016,-5.149,3.994,8.007
1.784,-5.591,3.186,8.008
1.342,-6.045,2.843,8.02
1.068,-6.421,3.053,8.099
0.779,-6.807,2.888,8.101
0.542,-6.945,3.143,8.109
0.453,-7.072,3.659,8.11
0.4,-7.22,4.04,8.112
0.923,-6.504,5.409,8.198
0.906,-6.683,5.766,8.2
0.809,-6.811,5.921,8.201
0.804,-7.055,5.911,8.203
-0.169,-7.463,6.227,8.303
-0.036,-7.901,6.602,8.305
0.177,-8.521,7.242,8.306
0.311,-9.146,8.092,8.308
0.119,-9.63,9.061,8.309
1.83,-10.087,10.374,8.399
1.762,-10.802,11.804,8.4
1.843,-10.653,12.106,8.402
2.13,-9.587,10.974,8.404
2.319,-8.849,9.898,8.416
1.29,-6.931,9.694,8.499
1.233,-5.976,8.629,8.5
1.262,-5.697,8.09,8.502
1.166,-5.538,7.815,8.504
1.048,-4.772,7.316,8.505
0.922,-4.408,7.424,8.598
1.226,-4.264,7.292,8.6
1.434,-3.962,6.885,8.602
1.38,-4.163,6.389,8.603
1.724,-4.193,5.78,8.605
1.796,-4.458,5.275,8.699
1.753,-4.813,4.94,8.7
1.93,-4.306,4.917,8.702
2.212,-4.939,4.418,8.704
2.013,-4.425,4.674,8.705
1.008,-3.923,4.469,8.799
0.508,-4.023,5.069,8.8
-0.538,-5.185,4.854,8.802
-0.208,-7.177,5.031,8.814
0.023,-6.669,5.908,8.816
-0.108,-5.977,6.431,8.899
-0.2,-5.5,7.0,8.904
-0.377,-5.169,7.608,8.906
-0.092,-5.223,7.769,8.907
0.277,-5.831,8.092,8.909
2.156,-4.931,9.371,8.999
2.133,-5.507,10.287,9.0
1.889,-6.018,11.598,9.002
1.411,-6.702,13.362,9.004
1.2,-7.54,14.72,9.005
3.249,-10.043,13.651,9.099
3.476,-9.935,12.424,9.1
3.516,-9.81,10.584,9.102
3.669,-9.28,8.231,9.104
2.943,-8.002,6.857,9.105
2.084,-4.288,8.3,9.199
1.392,-3.344,8.4,9.2
1.084,-2.288,8.8,9.212
1.084,-2.288,9.0,9.214
1.128,-2.796,8.5,9.216
1.188,-0.018,8.588,9.279
0.982,-0.376,8.682,9.281
0.986,-1.104,8.786,9.286
0.659,-1.812,8.559,9.287
0.253,-2.271,8.153,9.289
-0.2,-2.6,7.5,9.397
-0.592,-2.755,7.008,9.399
-0.708,-2.745,6.792,9.401
-0.712,-2.718,6.888,9.402
-1.319,-1.66,7.528,9.5
-1.409,-1.304,8.023,9.502
-1.489,-0.945,8.296,9.503
-1.485,-0.743,8.434,9.513
-1.57,-0.585,8.568,9.515
-1.628,-0.264,8.751,9.517
-1.619,1.121,9.261,9.603
-1.501,1.333,9.782,9.613
-1.195,1.437,10.189,9.614
-1.037,1.409,10.741,9.616
-1.024,1.784,11.372,9.618
-1.665,4.265,12.147,9.699
-2.245,5.278,12.851,9.702
-3.114,6.68,13.937,9.705
-2.88,7.614,14.604,9.706
-1.006,7.606,13.959,9.708
1.721,8.015,11.802,9.799
1.53,5.979,10.051,9.8
2.184,4.063,8.94,9.802
2.758,3.166,8.664,9.804
2.878,2.89,9.229,9.808
3.943,2.239,8.508,9.899
3.776,2.744,8.165,9.901
3.804,3.459,7.689,9.903
3.737,4.65,7.374,9.905
3.576,5.6,6.894,9.973
3.043,4.833,6.761,9.985
2.51,4.067,6.627,9.987
2.278,3.133,6.92,9.989
2.365,2.4,7.041,9.992
1.533,0.633,7.333,10.097
1.44,0.509,7.04,10.098
1.356,0.604,6.856,10.1
1.44,0.509,7.04,10.102
1.074,0.842,6.674,10.2
1.079,1.474,6.779,10.201
1.321,0.826,7.421,10.203
1.289,1.337,7.589,10.205
1.274,1.242,7.874,10.206
1.153,1.416,8.453,10.208
0.11,1.573,8.878,10.298
0.423,1.849,9.31,10.3
0.557,2.205,9.634,10.308
0.669,2.213,9.548,10.309
0.683,2.555,9.597,10.311
0.399,2.833,10.182,10.398
0.069,3.013,11.048,10.4
-0.287,3.075,12.332,10.402
-0.666,3.389,14.306,10.408
-0.65,3.466,16.191,10.41
2.751,0.693,16.551,10.498
2.796,0.084,14.196,10.5
2.571,-0.398,11.871,10.502
2.56,-0.546,11.06,10.504
2.748,-0.222,11.048,10.505
2.219,0.67,10.937,10.601
1.819,0.47,10.437,10.602
1.322,0.544,9.644,10.604
1.089,0.778,8.778,10.605
1.1,0.9,8.0,10.607
2.082,3.052,6.57,10.678
2.178,3.048,6.11,10.68
2.02,3.0,5.86,10.682
1.764,2.805,5.939,10.683
1.573,2.767,5.987,10.693
0.174,4.103,5.873,10.801
0.05,4.398,6.318,10.803
-0.039,4.854,6.71,10.804
-0.057,5.43,7.133,10.806
-0.141,4.822,7.939,10.9
-0.431,4.792,7.704,10.901
-0.588,4.863,7.718,10.903
-0.637,5.11,8.045,10.905
-0.588,5.263,8.518,10.909
-0.563,5.39,8.855,10.911
-0.514,5.543,9.329,10.998
-0.322,5.967,10.016,11.0
-0.386,6.657,10.771,11.002
-0.571,7.514,11.443,11.003
-0.61,7.931,11.735,11.005
1.195,7.906,11.367,11.103
1.392,7.451,10.4,11.104
2.029,6.74,9.033,11.106
2.616,6.397,8.3,11.115
2.985,6.341,8.267,11.117
1.107,7.572,7.25,11.198
0.652,7.39,6.389,11.2
0.314,7.245,6.099,11.202
0.005,7.18,6.078,11.203
0.039,6.646,5.79,11.208
0.73,5.117,6.391,11.298
0.683,4.604,6.548,11.304
0.604,3.874,6.813,11.306
0.378,3.13,6.735,11.308
0.196,2.726,6.887,11.309
0.564,1.544,7.307,11.398
0.742,1.534,7.636,11.4
1.051,1.898,7.784,11.402
1.157,2.571,7.596,11.403
1.296,3.018,7.626,11.405
2.586,3.067,7.122,11.498
2.72,3.633,7.155,11.5
2.759,4.0,7.365,11.511
2.929,4.4,7.682,11.513
3.031,5.414,7.637,11.598
3.067,5.733,8.033,11.6
3.1,6.0,8.8,11.601
3.167,6.333,9.333,11.603
2.886,6.657,9.729,11.605
3.316,4.171,12.246,11.698
3.253,4.388,13.561,11.7
3.479,4.313,14.452,11.701
3.805,3.897,14.962,11.703
4.047,3.092,13.799,11.711
3.6,1.94,11.58,11.805
2.932,1.241,9.793,11.807
2.605,0.977,9.022,11.809
2.647,1.272,9.059,11.81
2.8,1.5,9.5,11.812
1.998,4.148,8.37,11.898
1.561,4.376,7.645,11.9
1.152,4.49,7.362,11.915
1.095,4.819,6.976,11.917
1.314,4.643,6.871,11.919
1.054,4.143,6.691,11.999
0.791,3.514,6.817,12.001
0.625,2.981,6.984,12.003
0.397,2.571,7.006,12.004
0.079,2.524,7.375,12.006
0.156,2.202,7.333,12.098
0.104,2.255,7.267,12.1
0.094,2.329,7.333,12.101
0.211,2.465,7.5,12.103
0.393,2.79,7.467,12.105
2.8,2.4,7.2,12.198
2.74,2.447,7.319,12.2
2.721,2.606,7.162,12.201
2.945,2.84,7.436,12.203
3.281,2.958,7.643,12.204
1.879,5.659,7.211,12.298
2.298,5.942,7.501,12.307
2.672,6.355,7.764,12.309
2.831,7.032,8.184,12.311
3.002,8.058,8.799,12.312
4.979,10.412,6.697,12.404
5.481,11.259,6.735,12.405
5.936,12.236,7.091,12.407
6.346,12.769,7.183,12.409
6.909,12.509,7.373,12.41
7.228,11.545,6.319,12.504
6.26,9.557,5.874,12.506
5.392,8.168,5.428,12.507
5.357,7.791,5.238,12.509
5.475,7.621,4.817,12.511
5.54,8.151,2.602,12.598
5.07,7.826,2.251,12.6
4.36,7.449,1.898,12.601
3.907,7.233,1.765,12.603
3.735,7.263,1.626,12.604
2.721,7.711,1.036,12.698
2.518,7.855,1.256,12.7
2.592,7.915,1.786,12.702
2.565,7.791,2.389,12.704
2.39,7.644,2.732,12.706
2.121,7.411,3.136,12.798
2.096,7.458,3.493,12.799
1.893,7.601,3.712,12.801
1.828,7.91,3.724,12.803
1.743,8.094,3.526,12.804
0.836,8.445,2.455,12.898
0.84,8.38,2.1,12.9
0.811,7.904,1.736,12.901
0.713,7.671,1.609,12.903
0.736,7.745,1.455,12.904
0.432,8.021,-0.304,12.998
0.66,8.306,-0.221,13.0
0.926,8.317,-0.023,13.002
1.096,8.564,-0.013,13.003
1.128,8.785,-0.017,13.013
0.926,8.97,-1.891,13.102
1.066,9.525,-2.226,13.103
1.16,10.845,-2.864,13.108
1.46,11.345,-3.164,13.11
1.849,9.787,-2.54,13.113
1.421,8.09,-4.962,13.198
0.769,8.666,-5.757,13.2
0.318,9.441,-6.976,13.206
0.611,9.494,-7.543,13.208
-0.333,6.667,-9.367,13.297
-0.47,6.576,-9.703,13.299
-0.599,6.386,-9.51,13.301
-0.148,5.879,-8.515,13.302
0.227,5.418,-7.473,13.304
-0.525,3.285,-7.587,13.397
-0.56,3.288,-6.909,13.399
-0.595,3.591,-6.632,13.4
-0.96,4.188,-6.609,13.404
-2.145,5.122,-7.059,13.417
-2.33,5.837,-8.581,13.497
-2.152,6.415,-8.793,13.499
-1.407,6.259,-8.07,13.501
-0.944,5.856,-8.122,13.503
-0.959,5.274,-8.163,13.506
-2.577,1.439,-9.197,13.597
-2.214,1.557,-9.382,13.599
-1.909,1.205,-9.821,13.603
-1.661,1.081,-10.551,13.612
-2.043,1.072,-11.309,13.613
-2.881,-5.038,-11.376,13.697
-3.795,-5.91,-11.919,13.699
-3.352,-5.535,-11.11,13.7
-2.524,-4.652,-9.005,13.702
-2.338,-4.444,-7.608,13.704
-3.928,-4.574,-6.591,13.797
-4.696,-2.181,-9.094,13.799
-6.289,-3.902,-6.734,13.805
-4.577,-13.645,1.085,13.816
-2.651,-13.03,-0.277,13.819
-2.166,-11.405,1.828,13.897
-0.745,-11.66,-0.337,13.899
-1.605,-10.111,-2.959,13.905
-2.989,-7.635,-6.791,13.906
-2.813,-6.449,-7.693,13.908
-0.696,-6.235,-7.784,13.996
0.833,-7.644,-9.553,13.998
3.844,-9.015,-13.084,14.0
4.233,-10.944,-8.853,14.006
5.921,-11.974,-7.421,14.008
5.515,-15.623,-4.1,14.098
6.185,-16.877,-3.3,14.099
5.385,-16.977,-2.7,14.101
5.338,-16.308,-3.0,14.103
4.223,-15.085,-4.2,14.104
-3.045,-13.708,3.275,14.198
-2.42,-12.069,3.502,14.199
-2.214,-10.798,3.231,14.213
-2.192,-9.073,2.739,14.215
-2.51,-7.384,0.151,14.218
-4.094,-4.583,-1.766,14.297
-2.568,-2.615,0.87,14.306
-1.281,-2.349,2.802,14.307
-1.074,-2.732,2.536,14.309
-1.689,-2.638,1.623,14.31
-1.669,-1.728,2.625,14.397
-2.175,-1.912,3.199,14.399
-2.409,-2.178,3.866,14.401
-2.029,-2.977,4.084,14.407
-1.055,-2.898,4.328,14.409
-1.595,-4.124,3.681,14.497
-1.448,-5.062,3.59,14.499
-1.224,-5.941,3.675,14.501
-5.986,-9.591,-2.497,14.506
0.01,-13.628,4.702,14.508
0.547,-13.007,5.267,14.597
1.873,-8.553,4.533,14.609
0.056,-9.056,3.022,14.619
-1.542,-9.018,2.311,14.621
-0.507,-8.213,3.233,14.622
-0.081,-8.857,3.617,14.697
-1.994,-8.717,2.97,14.699
-2.431,-9.306,2.79,14.704
-2.78,-9.561,3.471,14.706
-5.8,-9.6,3.6,14.707
-6.842,-9.175,1.904,14.801
-4.331,-9.506,1.89,14.803
-1.715,-9.656,5.199,14.804
0.264,-9.092,7.274,14.806
2.502,-8.504,6.638,14.897
0.398,-8.396,5.162,14.899
-1.406,-8.687,3.885,14.906
-2.43,-8.94,2.264,14.908
-2.462,-9.277,2.589,14.909
-1.512,-9.761,2.753,15.003
-1.355,-9.043,2.758,15.015
-1.701,-8.987,1.668,15.017
-2.111,-9.174,1.284,15.018
-2.563,-9.242,1.305,15.02
-2.441,-8.807,1.068,15.097
-2.575,-9.003,1.358,15.102
-2.566,-9.404,2.611,15.104
-2.103,-9.462,2.405,15.106
-2.092,-9.701,2.353,15.107
-0.831,-10.594,0.933,15.222
-0.622,-10.676,0.931,15.224
-0.476,-10.045,0.494,15.226
-0.204,-9.959,0.251,15.227
0.09,-9.698,0.178,15.229
0.141,-8.878,-0.724,15.299
0.731,-7.875,-0.845,15.3
0.558,-7.194,-1.661,15.302
0.786,-7.477,-2.485,15.303
0.785,-7.813,-3.377,15.305
-0.345,-8.342,-3.1,15.337
-0.577,-7.779,-1.8,15.419
-0.958,-7.545,-1.7,15.422
-1.309,-8.117,-2.1,15.423
-1.3,-8.7,-2.0,15.429
-1.089,-9.04,-1.7,15.497
-0.951,-9.072,-1.2,15.499
-1.058,-9.845,-1.1,15.5
-0.542,-11.055,-0.4,15.502
-1.457,-12.802,-0.5,15.505
-2.072,-12.949,-1.0,15.597
-2.183,-10.309,-3.4,15.599
-4.928,-10.251,-4.2,15.601
-5.302,-11.543,-3.6,15.602
-0.889,-9.74,-3.3,15.604
-1.951,-9.604,-2.368,15.696
-1.956,-9.483,-1.961,15.698
-1.045,-8.852,-1.817,15.7
-0.801,-8.636,-1.879,15.701
-0.359,-7.791,-2.197,15.713
-0.052,-7.44,-2.347,15.797
-0.004,-6.744,-1.815,15.799
-0.014,-6.103,-2.201,15.806
-0.058,-6.255,-2.918,15.808
-0.495,-6.92,-3.907,15.811
0.658,-6.895,-5.037,15.897
0.225,-7.103,-6.458,15.899
0.412,-7.539,-7.147,15.9
1.079,-6.947,-7.268,15.902
-0.227,-7.672,-6.279,15.904
-3.362,-7.777,-8.289,16.022
-4.813,-9.074,-10.37,16.024
-2.777,-8.247,-8.721,16.025
-3.396,-8.509,-7.377,16.027
-5.23,-9.44,-7.064,16.029
-6.205,-13.037,-6.142,16.098
-3.231,-13.334,-7.384,16.1
-0.488,-13.739,-5.647,16.102
0.087,-12.848,-3.821,16.119
-0.124,-10.209,-3.574,16.122
-0.205,-7.537,-4.342,16.124
-0.596,-6.509,-5.877,16.196
-0.311,-6.779,-6.609,16.197
-0.028,-7.645,-6.602,16.199
-0.123,-8.753,-5.479,16.207
-1.951,-8.148,-5.173,16.314
-1.475,-6.674,-5.587,16.317
-0.881,-5.657,-5.317,16.32
-0.455,-5.935,-5.357,16.322
0.083,-7.849,-5.591,16.323
0.153,-9.935,-2.235,16.397
0.294,-9.329,-1.129,16.399
0.284,-7.445,-3.345,16.4
-0.269,-6.41,-4.71,16.403
-0.104,-5.986,-5.686,16.405
-1.147,-3.447,-7.771,16.496
0.131,-4.069,-9.42,16.498
0.443,-4.657,-9.502,16.51
0.739,-9.561,-5.775,16.512
-0.737,-12.161,0.763,16.597
1.38,-9.737,-5.12,16.599
1.71,-10.431,-2.39,16.6
3.114,-9.004,-3.486,16.602
3.904,-7.173,-4.596,16.607
1.385,-7.152,-4.207,16.697
-0.848,-10.119,-2.374,16.698
-2.319,-13.815,-2.859,16.7
-2.404,-15.463,0.948,16.702
0.378,-11.578,-1.011,16.703
-0.024,-6.418,-6.618,16.797
-0.116,-10.145,-4.078,16.798
-0.62,-11.831,-3.898,16.8
-2.455,-10.608,-3.575,16.802
-1.908,-9.673,-2.339,16.803
-0.891,-7.209,-6.673,16.897
-0.033,-7.967,-4.233,16.898
0.896,-8.329,-4.468,16.913
0.344,-8.478,-5.956,16.915
-0.1,-7.4,-6.1,16.926
-0.371,-6.463,-6.234,16.997
-0.938,-6.428,-5.893,16.998
-0.979,-5.821,-5.67,17.0
0.233,-5.333,-6.867,17.002
0.789,-4.656,-6.011,17.009
0.94,-4.58,-6.6,17.098
1.02,-6.64,-5.3,17.106
1.024,-8.671,-2.811,17.107
0.92,-7.94,-3.5,17.109
1.267,-6.367,-4.467,17.111
0.479,-5.694,-5.493,17.197
0.552,-5.215,-6.168,17.198
0.318,-5.075,-7.071,17.2
-0.587,-6.334,-6.49,17.202
-1.578,-8.216,-4.953,17.203
-0.532,-9.953,-2.951,17.304
-1.042,-10.257,-3.119,17.316
-1.302,-10.521,-4.174,17.318
-2.508,-11.283,-4.794,17.32
-2.604,-11.742,-4.447,17.322
-2.057,-12.233,-6.205,17.4
-1.877,-12.727,-8.698,17.402
-2.566,-13.54,-6.697,17.404
-1.971,-15.289,-2.97,17.405
-1.889,-12.713,-3.699,17.407
-1.128,-8.322,-4.875,17.497
0.208,-6.582,-4.863,17.499
0.507,-6.072,-4.618,17.501
-0.173,-6.668,-4.179,17.503
-1.365,-6.651,-4.842,17.505
-1.223,-5.611,-6.375,17.597
-0.305,-6.482,-5.615,17.598
0.16,-5.367,-5.649,17.6
-0.741,-3.804,-6.992,17.601
-1.936,-5.385,-6.334,17.603
-1.22,-5.796,-6.228,17.697
-0.94,-5.432,-7.076,17.698
-1.94,-6.212,-7.116,17.7
-1.78,-7.844,-7.292,17.701
-2.1,-8.3,-7.9,17.703
0.267,-5.827,-9.787,17.796
0.667,-3.827,-9.287,17.798
0.922,-3.402,-8.149,17.8
2.1,-3.5,-8.5,17.801
1.944,-2.104,-8.898,17.803
2.084,-0.868,-10.51,17.896
1.291,-0.675,-10.071,17.898
1.666,-0.718,-9.351,17.899
0.641,0.239,-9.232,17.901
-1.072,-0.347,-9.611,17.903
0.355,1.07,-9.292,17.997
-0.215,1.257,-8.564,17.998
-1.496,-0.864,-8.034,18.0
-2.785,-0.157,-10.336,18.001
-5.015,5.157,-11.164,18.013
-2.467,3.867,-11.767,18.096
-2.706,3.171,-10.297,18.097
-2.928,3.062,-8.636,18.099
-3.246,2.871,-8.077,18.104
-2.29,4.658,-8.679,18.197
-2.686,5.817,-9.209,18.199
-3.243,5.869,-10.134,18.2
-3.229,5.946,-9.523,18.209
-3.114,4.763,-8.231,18.211
-1.422,4.044,-8.344,18.297
-1.522,3.544,-8.344,18.303
-0.759,3.352,-9.752,18.305
-0.444,1.589,-10.889,18.307
-0.463,0.993,-10.093,18.308
0.23,1.974,-8.274,18.396
0.422,2.856,-6.756,18.398
0.496,3.841,-5.941,18.4
0.659,4.448,-6.248,18.401
0.693,4.881,-7.781,18.413
1.226,5.015,-9.415,18.501
1.356,3.589,-9.789,18.503
1.693,3.581,-8.681,18.505
1.556,3.689,-7.989,18.508
0.863,4.507,-8.007,18.51
-1.676,6.555,-8.328,18.596
-2.529,6.586,-11.043,18.598
-2.571,4.894,-11.597,18.6
-1.048,2.61,-10.805,18.605
-0.871,1.914,-11.457,18.606
-1.404,-0.594,-12.551,18.721
0.909,-1.364,-12.423,18.723
1.294,-1.742,-11.026,18.725
1.172,-1.108,-9.532,18.726
1.517,-0.775,-8.621,18.728
2.419,1.916,-7.658,18.798
2.724,3.155,-6.628,18.799
2.495,2.801,-6.25,18.801
2.533,3.093,-5.847,18.812
2.438,2.912,-5.756,18.814
1.886,2.983,-7.191,18.816
1.876,4.005,-8.252,18.895
1.643,3.031,-8.566,18.898
1.143,3.571,-8.786,18.899
0.676,3.005,-8.752,18.901
-0.14,0.909,-9.485,18.996
-1.096,1.294,-10.349,18.997
-1.14,1.009,-10.185,18.999
-0.53,1.545,-10.008,19.001
-0.613,1.87,-10.928,19.002
-2.849,2.157,-11.726,19.096
-3.436,3.019,-12.482,19.098
-3.323,3.586,-12.189,19.1
-3.6,4.7,-12.7,19.101
-4.271,4.443,-12.114,19.107
-0.291,1.636,-10.823,19.196
0.647,1.279,-8.513,19.204
0.936,0.996,-7.466,19.216
1.266,1.951,-8.158,19.218
1.174,3.04,-9.157,19.219
1.39,5.102,-9.001,19.296
0.905,3.159,-9.53,19.298
1.267,3.307,-8.853,19.304
1.757,3.709,-7.754,19.307
2.305,3.999,-7.15,19.309
2.645,3.636,-7.045,19.396
2.745,3.936,-7.145,19.398
2.264,4.491,-7.164,19.4
2.473,4.138,-7.513,19.401
1.8,3.86,-7.52,19.403
0.724,4.913,-6.9,19.496
0.255,4.383,-7.6,19.498
-0.077,4.243,-8.3,19.499
-0.521,4.296,-8.9,19.501
-0.722,5.627,-8.8,19.503
-1.031,5.846,-9.3,19.6
0.038,5.292,-9.7,19.613
0.446,5.231,-11.1,19.615
-1.631,5.446,-13.0,19.617
-0.146,2.769,-14.1,19.62
-2.5,1.46,-13.22,19.696
-1.467,1.413,-11.893,19.698
-1.638,-0.332,-11.316,19.704
0.971,2.306,-10.497,19.706
0.981,1.364,-9.618,19.709
2.218,3.452,-8.477,19.795
2.073,3.422,-7.635,19.797
2.867,3.733,-6.833,19.799
3.599,4.687,-5.971,19.806
2.677,5.463,-5.499,19.896
3.276,5.284,-5.885,19.902
3.331,6.089,-5.397,19.904
3.361,5.979,-5.894,19.905
1.98,5.8,-6.14,19.907
0.856,3.684,-6.825,19.996
0.666,3.074,-6.862,20.016
2.273,4.047,-7.644,20.018
3.198,4.942,-8.773,20.021
3.507,4.753,-9.396,20.022
1.42,6.0,-9.44,20.098
2.453,6.068,-9.721,20.1
2.913,7.568,-10.441,20.102
1.806,7.984,-10.171,20.104
-0.088,4.921,-10.513,20.105
-1.818,2.395,-10.117,20.196
-0.748,2.521,-9.893,20.198
0.599,3.453,-8.772,20.199
0.717,3.058,-8.755,20.201
0.277,3.158,-8.675,20.203
-0.924,3.808,-8.712,20.296
1.033,4.722,-7.584,20.297
2.694,5.002,-6.553,20.299
2.882,5.106,-6.059,20.3
2.894,4.502,-5.653,20.306
2.053,4.176,-5.967,20.398
0.932,2.849,-6.788,20.4
0.763,4.379,-6.837,20.401
1.068,7.131,-6.072,20.403
1.779,6.054,-8.481,20.408
2.672,8.996,-8.389,20.496
-2.181,1.536,-13.508,20.498
5.802,7.074,-8.021,20.5
3.615,4.389,-8.366,20.501
6.123,6.383,-11.749,20.503
0.338,8.13,-6.859,20.595
1.738,8.23,-5.059,20.597
1.686,7.931,-6.163,20.599
-0.895,7.736,-7.772,20.6
-2.505,9.144,-7.388,20.602
1.519,9.44,-6.347,20.696
3.749,10.083,-2.823,20.697
0.889,11.696,-6.372,20.699
-0.009,10.73,-6.126,20.701
0.93,10.143,-5.975,20.718
2.981,9.26,-4.553,20.796
4.717,9.306,-2.992,20.797
2.27,10.757,-2.325,20.799
1.811,10.404,-3.028,20.801
2.051,9.317,-3.577,20.806
3.171,8.671,-2.694,20.896
3.51,7.643,-4.069,20.897
3.212,8.712,-3.682,20.899
3.398,9.631,-1.086,20.904
3.584,9.951,-1.49,20.906
3.411,9.379,-1.009,20.971
3.717,8.366,-1.994,20.973
4.43,8.64,-1.364,20.974
2.447,10.706,1.743,20.976
0.779,13.143,4.617,20.978
2.189,12.421,5.209,21.094
2.385,9.23,1.932,21.096
3.455,8.089,1.996,21.098
4.0,7.0,1.6,21.198
3.877,5.947,-0.421,21.199
3.321,6.057,0.683,21.201
1.532,5.236,-0.126,21.203
0.451,4.698,-0.081,21.204
-1.019,4.038,-0.845,21.21
-2.415,4.03,-0.468,21.211
-1.8,5.9,-0.1,21.296
-3.788,7.4,0.584,21.297
-5.248,8.8,2.364,21.299
-6.476,9.1,3.868,21.301
-7.096,9.7,3.528,21.302
-4.904,12.186,1.586,21.395
-5.28,11.969,1.269,21.397
-5.392,11.427,2.527,21.398
-5.578,12.325,2.825,21.4
-0.635,11.083,6.858,21.496
1.967,14.508,7.021,21.497
1.178,12.535,2.637,21.499
2.118,9.615,3.837,21.512
2.472,7.959,1.147,21.513
2.177,6.422,1.705,21.596
0.86,5.52,3.4,21.599
0.807,5.888,3.921,21.602
0.801,7.213,4.232,21.607
1.249,7.694,5.184,21.609
1.304,6.809,5.477,21.696
1.585,6.47,4.932,21.699
2.572,6.645,5.002,21.701
3.274,7.449,4.24,21.703
3.515,9.03,3.768,21.705
1.143,10.828,5.149,21.796
1.306,11.917,4.37,21.797
1.673,11.919,3.206,21.799
1.929,11.888,2.702,21.801
2.043,12.428,2.249,21.803
2.089,12.866,2.961,21.896
2.111,13.234,1.439,21.897
1.842,12.525,-0.004,21.909
2.019,10.757,0.117,21.91
2.531,9.294,0.31,21.912
2.735,7.904,1.772,21.996
2.644,6.331,1.903,22.001
2.829,4.988,2.002,22.003
3.081,4.843,1.583,22.004
3.136,4.808,2.726,22.006
2.807,4.187,3.667,22.095
3.071,3.391,4.844,22.097
2.589,3.989,4.856,22.102
1.78,5.54,4.2,22.105
1.267,6.467,4.967,22.107
1.284,7.064,5.078,22.22
1.18,7.24,5.5,22.222
0.809,7.449,6.956,22.237
0.327,8.547,7.967,22.239
-0.307,10.313,8.733,22.24
-1.473,13.898,5.594,22.297
-2.131,14.517,2.95,22.309
-0.724,14.066,4.498,22.311
-1.286,13.799,3.097,22.313
-0.213,12.522,2.467,22.315
0.287,11.022,1.867,22.316
2.006,9.371,1.371,22.393
2.182,8.388,1.488,22.395
2.055,7.992,1.092,22.397
2.053,8.235,1.935,22.398
3.1,8.0,2.9,22.495
3.169,8.628,2.928,22.497
3.295,11.222,4.422,22.499
1.031,13.472,5.272,22.5
-1.079,11.681,2.081,22.502
-1.986,7.398,1.598,22.6
-3.265,7.424,0.924,22.601
-1.653,8.365,4.665,22.603
1.763,9.22,3.62,22.605
0.941,6.994,1.994,22.606
0.245,6.208,0.808,22.695
0.969,5.69,-1.71,22.697
1.914,4.198,1.498,22.699
2.327,4.596,1.396,22.707
3.961,4.963,3.963,22.708
4.16,5.88,5.5,22.795
2.7,7.1,7.0,22.797
1.282,8.802,5.989,22.799
-0.158,10.382,2.489,22.8
0.964,8.804,1.978,22.802
2.598,5.396,2.762,22.895
2.051,3.002,4.719,22.897
1.64,2.881,4.528,22.899
0.977,4.853,2.979,22.9
0.209,5.117,3.153,22.902
2.144,5.256,5.378,23.0
1.233,6.867,5.533,23.002
-0.418,5.978,6.869,23.004
-1.307,4.867,9.313,23.005
-1.576,4.956,10.418,23.015
2.311,2.741,11.496,23.1
1.893,0.529,12.375,23.102
1.336,-1.676,12.842,23.103
1.482,-2.912,14.079,23.105
2.838,-3.212,13.538,23.195
3.389,0.252,15.489,23.197
4.64,3.246,15.74,23.199
5.822,5.595,13.422,23.2
5.975,7.818,12.375,23.205
3.635,12.661,9.425,23.295
2.752,12.793,12.153,23.297
2.046,12.216,15.31,23.299
1.125,11.101,17.808,23.3
1.7,8.0,16.4,23.302
3.527,1.44,13.027,23.395
3.735,3.372,10.035,23.397
3.675,4.218,8.575,23.399
3.233,4.114,8.033,23.4
2.533,1.714,8.233,23.41
0.917,-0.365,8.642,23.496
0.782,-0.343,8.605,23.497
0.695,-0.942,8.837,23.5
0.643,-1.055,8.958,23.507
0.602,-0.583,8.305,23.509
1.086,-1.171,7.243,23.595
0.704,-0.98,6.645,23.597
0.186,-0.971,6.343,23.603
-0.08,-1.398,6.124,23.605
-0.222,-2.112,5.953,23.606
0.207,-5.392,3.718,23.704
0.475,-5.84,3.588,23.706
0.737,-6.359,3.992,23.708
1.05,-6.881,4.976,23.709
1.275,-7.14,5.488,23.713
1.111,-9.743,2.494,23.801
0.728,-11.395,3.736,23.803
0.517,-12.014,4.691,23.806
0.6,-11.9,4.7,23.816
0.448,-12.195,4.276,23.817
-0.855,-13.062,-0.288,23.894
-0.108,-13.029,-0.253,23.899
1.317,-13.194,-0.232,23.903
2.503,-13.157,-0.416,23.905
2.746,-12.615,0.173,23.907
1.251,-10.758,-4.434,23.995
0.977,-8.696,-4.285,23.997
0.902,-6.717,-4.368,23.998
1.347,-6.125,-3.898,24.0
1.174,-7.462,-2.749,24.002
0.668,-8.328,3.092,24.1
2.277,-10.791,1.236,24.101
3.213,-13.947,-3.079,24.103
0.298,-14.008,-6.189,24.105
0.989,-13.045,-5.832,24.106
4.026,-6.106,-9.902,24.195
3.295,-5.915,-8.772,24.197
2.979,-5.559,-7.886,24.212
3.347,-5.267,-7.556,24.214
4.3,-5.12,-7.84,24.215
2.855,-5.472,-8.519,24.295
2.657,-6.36,-7.926,24.297
2.313,-6.821,-7.753,24.298
2.383,-6.202,-7.932,24.3
1.958,-6.549,-7.734,24.302
2.884,-7.964,-6.355,24.395
2.653,-8.893,-6.064,24.397
2.9,-9.16,-5.62,24.404
2.984,-8.624,-5.975,24.405
2.547,-7.687,-6.496,24.407
2.237,-7.137,-5.879,24.495
2.074,-6.634,-5.778,24.497
1.674,-6.214,-6.338,24.498
1.121,-5.981,-7.894,24.504
1.016,-5.956,-8.585,24.506
0.883,-6.921,-8.275,24.595
1.404,-7.051,-9.394,24.605
1.649,-7.262,-10.426,24.606
2.109,-8.077,-9.036,24.615
2.466,-9.242,-5.651,24.616
1.055,-10.588,1.833,24.695
2.684,-10.577,2.494,24.697
4.282,-10.813,4.231,24.698
4.357,-10.915,3.959,24.7
4.742,-11.521,3.078,24.702
1.945,-9.455,10.064,24.794
2.2,-10.8,9.6,24.796
1.982,-9.918,10.955,24.798
2.464,-8.436,12.009,24.799
0.606,-4.658,13.824,24.895
0.898,-3.981,12.225,24.896
1.774,-5.651,11.428,24.898
2.083,-7.487,12.165,24.9
1.868,-7.493,12.104,24.901
-3.877,-2.0,9.415,24.995
-2.369,-0.2,5.754,25.004
-0.8,1.6,3.8,25.015
0.546,1.5,3.131,25.018
1.154,1.1,2.769,25.02
1.375,2.653,2.802,25.095
1.517,3.802,3.968,25.096
1.649,3.594,3.796,25.102
1.855,3.928,2.619,25.104
1.485,3.709,3.24,25.106
0.024,3.738,4.952,25.195
-0.243,4.771,6.486,25.197
-0.216,5.038,7.132,25.198
0.101,5.11,7.198,25.2
0.03,5.805,7.239,25.201
-0.294,5.857,7.989,25.341
-0.287,5.833,7.673,25.343
0.197,6.171,7.406,25.353
0.219,5.79,7.562,25.354
0.201,6.21,7.498,25.356
0.465,6.048,7.77,25.435
0.386,6.157,7.729,25.436
0.518,6.281,7.564,25.442
0.544,5.938,7.812,25.444
0.446,5.957,7.809,25.445
0.647,6.467,7.807,25.496
0.662,6.519,7.676,25.498
0.605,6.248,7.79,25.5
0.582,6.119,7.736,25.502
0.586,6.157,7.829,25.504
0.582,6.119,7.736,25.594
0.62,6.3,7.66,25.596
0.499,6.19,7.602,25.598
0.457,5.971,7.586,25.599
0.536,5.862,7.628,25.601
0.484,6.138,7.732,25.695
0.48,6.1,7.64,25.696
0.536,5.862,7.628,25.698
0.532,5.824,7.535,25.7
0.669,5.986,7.463,25.713
0.653,5.933,7.593,25.795
0.774,6.043,7.651,25.797
0.657,5.971,7.686,25.798
0.544,5.938,7.812,25.8
0.642,5.919,7.816,25.801
0.586,6.157,7.829,25.895
0.51,6.305,7.879,25.896
0.567,6.067,7.867,25.898
0.661,6.01,7.778,25.904
0.54,5.9,7.72,25.906
0.48,6.1,7.64,25.995
0.597,6.171,7.606,25.996
0.536,5.862,7.628,25.998
0.54,5.9,7.72,26.0
0.657,5.971,7.686,26.001
0.759,5.99,7.782,26.095
0.65,5.995,8.001,26.096
0.551,6.014,7.997,26.102
0.509,5.286,8.083,26.116
0.468,5.576,7.965,26.117
0.567,6.067,7.867,26.199
0.642,5.919,7.816,26.2
0.404,5.738,7.792,26.202
0.521,5.81,7.758,26.203
0.498,5.681,7.704,26.205
0.408,5.776,7.885,26.296
0.392,5.724,8.015,26.297
0.415,5.852,8.07,26.299
0.498,5.781,8.204,26.304
0.592,5.724,8.115,26.306
0.638,5.981,8.224,26.394
0.578,6.181,8.144,26.396
0.63,5.905,8.039,26.397
0.646,5.957,7.909,26.399
0.623,5.829,7.854,26.495
0.627,5.867,7.947,26.496
0.665,6.048,7.87,26.498
0.623,5.829,7.854,26.51
0.483,5.629,7.834,26.512
0.6,5.7,7.8,26.595
0.544,5.938,7.812,26.597
0.6,5.7,7.8,26.599
0.581,5.61,7.838,26.601
0.581,5.61,7.838,26.602
0.717,5.771,7.766,26.7
0.721,5.81,7.858,26.702
0.781,5.61,7.938,26.704
0.781,5.61,7.938,26.705
0.706,5.757,7.989,26.707
0.611,5.814,8.077,26.795
0.566,5.557,7.969,26.796
0.706,5.757,7.989,26.798
0.823,5.829,7.954,26.8
0.706,5.757,7.989,26.801
0.589,5.686,8.023,26.87
0.717,5.771,7.766,26.873
0.683,5.629,7.934,26.887
0.706,5.757,7.989,26.888
0.687,5.667,8.027,26.891
