gyro_time_list,gyro_x_list,gyro_y_list,gyro_z_list
0.0,0.1,0.2,0.4
0.002,0.1,0.2,-0.0
0.004,-1.0,0.2,-0.0
0.104,-0.1,0.2,0.3
0.109,-0.1,0.2,0.1
0.11,-0.1,0.2,0.2
0.112,-0.2,0.2,0.1
0.116,-0.1,0.2,0.1
0.118,-0.0,0.2,0.1
0.209,-0.1,0.2,0.1
0.21,-0.1,0.1,0.1
0.213,-0.1,0.1,0.0
0.215,-0.1,0.1,0.0
0.216,-0.1,0.1,0.1
0.218,-0.1,0.0,0.1
0.313,-0.2,0.0,0.1
0.315,-0.2,0.0,0.1
0.318,-0.2,0.0,0.1
0.32,-0.3,0.1,0.1
0.377,-0.3,0.1,0.2
0.382,-0.5,0.1,0.2
0.384,-0.7,0.1,0.2
0.386,-0.9,0.1,0.3
0.387,-1.1,0.1,0.4
0.502,-1.3,0.2,0.5
0.504,-1.3,0.2,0.5
0.506,-1.4,0.4,0.6
0.507,-1.7,0.5,0.7
0.608,-1.8,0.5,0.8
0.61,-1.9,0.6,0.9
0.612,-2.0,0.7,1.0
0.613,-2.2,0.8,1.0
0.615,-2.4,0.9,1.2
0.616,-2.8,1.0,1.4
0.719,-3.5,1.2,1.6
0.728,-4.0,1.4,2.0
0.73,-3.8,1.5,2.5
0.732,-3.5,1.5,2.7
0.742,-3.9,1.7,2.8
0.797,-4.7,1.9,3.1
0.799,-4.9,1.9,3.5
0.8,-4.8,1.8,3.6
0.802,-4.6,1.7,3.5
0.905,-4.3,1.6,3.7
0.907,-4.3,1.7,3.6
0.913,-4.5,1.8,3.5
0.915,-4.2,1.9,3.4
0.916,-4.0,1.8,3.1
0.929,-4.1,1.6,2.9
1.007,-4.5,1.6,2.6
1.008,-5.0,1.5,2.5
1.01,-5.3,1.3,2.3
1.012,-5.2,0.9,2.2
1.013,-4.6,0.6,2.0
1.108,-3.7,0.3,1.8
1.11,-2.8,0.3,1.5
1.111,-1.7,0.4,1.3
1.13,-0.5,0.5,1.0
1.132,0.3,0.7,0.8
1.204,0.5,0.9,0.7
1.205,0.7,1.0,0.6
1.207,1.0,1.0,0.5
1.211,1.5,1.1,0.4
1.212,2.1,1.3,0.3
1.3,2.7,1.5,0.2
1.302,2.8,1.5,0.1
1.304,2.6,0.9,-0.3
1.305,2.5,0.0,-0.2
1.307,2.8,-0.4,-0.0
1.405,1.7,-0.3,-0.1
1.407,0.4,0.1,-0.1
1.408,-0.2,0.1,-0.2
1.41,-0.4,0.0,-0.4
1.411,-0.5,-0.1,-0.6
1.518,-0.2,-0.1,-0.8
1.52,0.0,-0.1,-0.8
1.53,0.1,-0.2,-0.8
1.531,-0.0,-0.3,-0.8
1.533,-0.0,-0.2,-0.7
1.6,0.0,-0.2,-0.6
1.602,0.0,-0.1,-0.5
1.604,-0.0,-0.1,-0.5
1.605,-0.1,-0.1,-0.4
1.644,-0.1,0.0,-0.4
1.704,-0.1,0.1,-0.4
1.711,-0.0,0.1,-0.3
1.713,0.1,0.2,-0.3
1.715,0.2,0.2,-0.2
1.716,0.3,0.3,-0.2
1.8,0.4,0.3,-0.1
1.806,0.4,0.3,-0.1
1.808,0.4,0.3,-0.1
1.809,0.3,0.3,-0.0
1.811,0.2,0.2,-0.0
1.906,0.2,0.2,0.0
1.916,0.0,0.1,0.0
1.925,-0.1,0.0,0.0
1.927,-0.2,-0.0,0.0
2.0,-0.3,-0.0,0.1
2.002,-0.2,-0.1,0.1
2.004,-0.1,-0.1,0.2
2.005,-0.0,-0.1,0.3
2.007,0.0,-0.1,0.3
2.101,0.0,-0.1,0.3
2.102,0.0,-0.1,0.3
2.108,0.0,-0.1,0.3
2.11,0.0,-0.1,0.3
2.111,0.0,-0.1,0.3
2.204,-0.0,-0.1,0.3
2.206,-0.0,-0.0,0.2
2.208,-0.0,-0.0,0.2
2.209,-0.0,-0.0,0.2
2.211,-0.0,-0.0,0.1
2.32,-0.1,-0.0,0.1
2.334,-0.1,0.0,0.1
2.336,-0.1,0.0,0.0
2.337,-0.0,0.0,-0.0
2.339,0.0,0.0,-0.0
2.404,0.1,0.0,-0.1
2.405,0.1,0.0,-0.1
2.407,0.1,0.0,-0.1
2.412,0.0,-0.0,-0.1
2.413,-0.0,-0.0,-0.1
2.503,-0.0,-0.0,-0.1
2.505,-0.0,-0.0,-0.1
2.506,-0.0,-0.0,-0.1
2.508,0.0,-0.0,-0.1
2.51,0.1,-0.0,-0.1
2.614,0.1,-0.0,-0.0
2.616,0.0,-0.1,-0.1
2.618,-0.1,-0.1,-0.1
2.619,-0.1,-0.1,-0.1
2.621,-0.1,-0.0,-0.1
2.704,-0.1,-0.0,-0.0
2.705,-0.2,-0.0,-0.0
2.706,-0.3,0.0,0.0
2.708,-0.2,0.1,0.1
2.71,-0.1,0.1,0.1
2.804,-0.1,0.1,0.2
2.805,-0.2,0.1,0.2
2.812,-0.4,-0.0,0.1
2.814,-0.5,-0.2,0.1
2.816,-0.7,-0.2,0.0
2.9,-0.6,-0.2,0.1
2.906,-0.6,-0.2,0.1
2.908,-0.7,-0.2,0.1
2.91,-0.7,-0.2,0.1
2.911,-0.7,-0.3,0.1
3.015,-0.6,-0.3,0.1
3.016,-0.5,-0.4,0.1
3.019,-0.5,-0.4,0.2
3.02,-0.5,-0.4,0.2
3.03,-0.4,-0.4,0.2
3.1,-0.4,-0.4,0.2
3.105,-0.5,-0.4,0.2
3.107,-0.5,-0.5,0.2
3.109,-0.7,-0.5,0.1
3.11,-0.8,-0.5,0.1
3.205,-0.8,-0.4,0.0
3.207,-0.8,-0.3,0.1
3.209,-0.8,-0.1,0.2
3.211,-0.7,0.1,0.3
3.212,-0.7,0.3,0.3
3.303,-0.6,0.4,0.3
3.304,-0.5,0.4,0.3
3.306,-0.5,0.2,0.3
3.308,-0.8,-0.0,0.2
3.309,-0.9,-0.1,0.2
3.409,-0.8,-0.0,0.2
3.41,-0.8,0.0,0.2
3.417,-0.9,0.0,0.2
3.427,-1.1,-0.0,0.2
3.428,-1.3,-0.1,0.2
3.504,-1.7,-0.2,0.1
3.505,-1.7,-0.2,0.1
3.507,-1.5,-0.2,0.0
3.511,-0.9,-0.1,0.0
3.513,-0.1,0.0,-0.1
3.598,0.4,0.1,-0.2
3.603,1.0,0.1,-0.1
3.605,1.2,0.1,-0.1
3.606,0.8,0.0,-0.1
3.7,0.6,-0.0,-0.3
3.701,0.8,0.0,-0.5
3.703,0.8,0.2,-0.6
3.705,0.9,0.4,-0.7
3.706,1.0,0.6,-0.6
3.815,1.5,0.7,-0.2
3.816,1.9,0.7,0.2
3.818,2.2,0.5,0.6
3.84,2.2,0.2,0.7
3.842,1.8,0.1,0.6
3.9,1.2,-0.1,0.4
3.901,0.6,-0.1,0.1
3.903,0.1,-0.1,-0.2
3.905,-0.0,-0.1,-0.5
3.906,-0.0,-0.1,-0.7
4.0,0.1,-0.1,-0.8
4.001,0.3,-0.1,-0.8
4.003,0.3,-0.1,-0.7
4.005,0.3,-0.2,-0.6
4.009,0.1,-0.2,-0.5
4.1,0.0,-0.2,-0.5
4.102,0.0,-0.1,-0.3
4.103,0.2,0.0,-0.2
4.109,0.6,0.1,0.0
4.11,0.8,0.2,0.3
4.209,0.9,0.3,0.5
4.211,0.7,0.3,0.7
4.228,0.3,0.3,0.9
4.23,-0.2,0.4,1.2
4.231,-0.6,0.4,1.5
4.302,-1.1,-0.0,1.5
4.304,-1.4,-0.1,1.5
4.311,-1.2,0.0,1.3
4.314,-0.4,-0.0,0.8
4.316,0.5,-0.1,0.2
4.405,0.8,-0.2,-0.5
4.406,0.5,-0.5,-1.1
4.408,-0.8,-0.8,-1.1
4.41,-1.8,-1.1,-0.8
4.411,-2.7,-1.2,-0.7
4.504,-3.1,-1.1,-0.6
4.506,-3.0,-1.0,-0.4
4.507,-2.6,-0.8,-0.2
4.513,-1.8,-0.6,-0.2
4.514,-1.0,-0.4,-0.2
4.616,-0.4,-0.3,-0.3
4.632,-0.1,-0.2,-0.3
4.633,-0.2,-0.2,-0.2
4.635,-0.3,-0.1,-0.2
4.636,0.1,-0.2,-0.3
4.704,0.9,-0.3,-0.3
4.705,1.1,-0.2,-0.3
4.741,0.7,-0.0,-0.1
4.743,0.5,0.2,0.2
4.744,0.1,0.4,0.6
4.8,-0.2,0.5,0.9
4.802,-0.2,0.5,1.3
4.803,0.1,0.5,1.5
4.805,0.3,0.5,1.4
4.811,0.5,0.6,1.0
4.913,1.2,0.8,0.4
4.915,2.3,0.8,-0.1
4.916,3.2,0.8,-0.5
4.918,3.5,0.7,-0.7
4.92,2.9,0.5,-0.9
5.005,1.9,0.3,-0.9
5.006,0.9,0.1,-1.1
5.008,0.3,-0.0,-1.2
5.009,0.0,0.0,-1.3
5.011,0.1,0.1,-1.4
5.105,0.4,0.2,-1.5
5.106,0.7,0.2,-1.6
5.108,0.9,0.2,-1.7
5.109,1.1,0.2,-1.7
5.111,1.1,0.2,-1.8
5.204,1.1,0.2,-1.9
5.206,0.9,0.2,-1.8
5.207,0.7,0.2,-1.6
5.209,0.6,0.2,-1.0
5.31,0.3,0.2,-0.1
5.312,-0.5,0.1,0.9
5.319,-1.3,-0.0,2.0
5.32,-2.1,-0.3,2.8
5.322,-3.0,-0.5,3.2
5.4,-3.5,-0.8,3.4
5.402,-2.9,-0.8,3.3
5.407,-1.1,-0.7,3.0
5.408,0.9,-0.4,2.3
5.41,1.8,-0.1,1.5
5.509,1.7,-0.1,0.8
5.51,1.1,-0.2,0.3
5.512,-0.1,-0.4,0.1
5.513,-1.3,-0.4,-0.0
5.515,-2.1,-0.4,-0.0
5.604,-2.3,-0.4,-0.0
5.606,-2.0,-0.3,-0.1
5.608,-1.4,-0.3,-0.2
5.61,-0.7,-0.3,-0.3
5.611,-0.2,-0.3,-0.5
5.745,0.0,-0.3,-0.7
5.746,0.2,-0.2,-0.8
5.748,0.4,-0.1,-0.8
5.755,0.6,-0.1,-0.6
5.764,0.6,-0.1,-0.4
5.826,0.4,-0.0,-0.1
5.827,0.1,0.0,0.4
5.829,-0.3,0.1,0.8
5.837,-0.7,-0.0,1.0
5.839,-1.1,0.1,1.2
5.903,-1.2,0.4,1.3
5.905,-1.0,0.7,1.3
5.906,-0.5,1.0,1.5
5.91,0.3,1.2,1.8
5.914,1.5,1.4,2.1
5.999,2.6,1.2,2.0
6.001,3.1,0.9,1.7
6.002,3.1,0.5,1.1
6.004,2.9,0.2,0.3
6.006,2.8,0.1,-0.4
6.108,2.6,-0.1,-1.1
6.109,2.1,-0.2,-1.7
6.111,1.8,-0.4,-2.1
6.124,1.6,-0.7,-2.3
6.126,1.3,-0.8,-2.4
6.201,1.0,-0.9,-2.4
6.209,0.6,-0.9,-2.3
6.211,0.1,-0.7,-2.2
6.212,-0.3,-0.4,-2.1
6.214,-0.6,-0.1,-1.9
6.303,-0.5,0.3,-1.7
6.304,0.1,0.6,-1.4
6.306,1.1,0.8,-1.2
6.31,2.1,1.0,-0.9
6.312,2.9,1.0,-0.6
6.405,3.4,1.0,-0.3
6.406,3.5,0.9,0.1
6.411,3.3,0.8,0.4
6.412,3.0,0.7,0.7
6.414,2.6,0.7,0.9
6.516,2.1,0.6,1.2
6.517,1.7,0.6,1.4
6.527,1.1,0.5,1.5
6.528,0.3,0.3,1.5
6.535,-0.5,0.1,1.2
6.603,-0.8,0.2,0.9
6.605,-0.6,0.4,0.7
6.606,-0.2,0.6,0.6
6.608,0.1,1.1,0.8
6.61,1.0,1.5,0.8
6.73,1.9,1.7,0.5
6.731,2.3,1.5,0.1
6.733,1.9,1.1,-0.2
6.735,0.8,0.8,-0.2
6.736,-0.4,0.5,-0.0
6.8,-1.4,0.0,0.1
6.806,-1.9,-0.2,0.1
6.808,-2.0,-0.2,0.0
6.809,-1.1,0.0,-0.0
6.811,0.3,0.3,0.0
6.911,1.5,0.4,0.1
6.925,2.2,0.5,0.1
6.927,2.5,0.6,0.1
6.928,2.4,0.5,0.0
7.005,2.1,0.3,-0.1
7.009,1.6,0.1,-0.1
7.011,1.2,-0.2,-0.1
7.016,1.4,-0.4,-0.4
7.018,1.3,-0.6,-0.6
7.1,0.6,-0.8,-0.7
7.101,-0.4,-0.7,-0.9
7.103,-1.3,-0.5,-1.1
7.105,-1.8,-0.4,-1.2
7.106,-1.8,-0.3,-1.2
7.2,-1.3,-0.1,-1.1
7.206,-0.3,0.4,-1.0
7.208,1.1,0.7,-1.1
7.209,2.2,0.8,-1.1
7.211,2.7,0.7,-1.1
7.318,2.7,0.6,-1.0
7.329,2.3,0.4,-0.9
7.33,1.7,0.2,-0.9
7.332,1.1,0.2,-0.8
7.334,0.8,0.3,-0.8
7.402,0.7,0.4,-0.7
7.403,0.8,0.5,-0.7
7.405,0.9,0.6,-0.8
7.413,1.0,0.6,-0.8
7.415,1.0,0.6,-0.8
7.503,0.9,0.7,-0.8
7.508,0.8,0.9,-0.7
7.509,0.7,0.7,-0.5
7.511,0.6,0.6,-0.1
7.512,0.4,0.5,0.3
7.618,-0.1,0.2,0.8
7.621,-0.7,-0.1,1.3
7.622,-1.4,-0.2,1.9
7.624,-2.1,-0.4,2.3
7.626,-2.6,-0.6,2.6
7.715,-2.7,-0.7,2.9
7.717,-1.9,-0.7,2.9
7.722,-0.3,-0.5,2.7
7.724,1.2,-0.1,2.3
7.725,2.1,0.1,1.6
7.808,1.9,0.2,1.0
7.81,0.8,0.0,0.5
7.812,-0.6,-0.2,0.0
7.814,-2.1,-0.3,-0.3
7.819,-3.0,-0.3,-0.5
7.907,-3.7,-0.3,-0.6
7.909,-3.7,-0.3,-0.7
7.911,-3.5,-0.3,-0.7
7.912,-3.4,-0.3,-0.7
7.914,-3.0,-0.3,-0.7
8.007,-2.0,-0.2,-0.7
8.009,-0.5,0.1,-0.6
8.015,0.7,0.1,-0.4
8.017,1.3,0.1,-0.3
8.031,1.3,0.1,-0.2
8.105,1.1,0.1,-0.1
8.106,1.0,0.1,-0.1
8.108,0.8,0.1,0.0
8.11,0.1,0.1,0.3
8.111,-0.7,0.2,0.6
8.203,-1.2,0.2,0.9
8.204,-1.2,0.2,1.2
8.213,-0.8,0.2,1.4
8.215,0.2,0.4,1.4
8.217,1.5,0.7,1.1
8.299,2.8,0.9,0.8
8.301,3.8,0.9,0.4
8.302,4.5,0.9,0.1
8.308,4.8,0.9,-0.2
8.31,4.5,0.7,-0.4
8.41,3.8,0.4,-0.6
8.412,2.9,0.2,-0.7
8.413,1.9,0.1,-0.8
8.423,1.0,-0.0,-0.9
8.434,0.5,-0.0,-1.0
8.504,0.3,0.0,-1.1
8.505,0.4,0.1,-1.1
8.51,0.6,0.0,-1.1
8.511,0.9,-0.1,-1.1
8.603,0.9,-0.2,-1.0
8.605,0.9,-0.2,-1.0
8.608,0.7,-0.1,-1.0
8.61,0.5,-0.0,-0.8
8.613,0.4,0.1,-0.5
8.709,0.5,0.2,0.0
8.71,0.5,0.2,0.7
8.712,0.3,0.1,1.3
8.713,0.1,-0.1,1.8
8.715,-0.2,-0.1,2.0
8.819,-0.6,-0.1,1.9
8.82,-0.6,-0.1,1.6
8.822,0.1,0.2,1.2
8.832,1.6,0.6,0.8
8.841,3.1,1.0,0.2
8.899,3.7,0.9,-0.4
8.901,3.8,0.7,-0.8
8.903,3.8,0.3,-1.0
8.904,3.6,-0.2,-1.1
8.906,2.4,-0.6,-1.2
9.005,0.7,-1.0,-1.3
9.008,-0.8,-1.2,-1.4
9.01,-1.9,-1.0,-1.4
9.012,-2.5,-0.8,-1.3
9.013,-2.5,-0.5,-1.2
9.104,-1.8,-0.2,-1.0
9.106,-0.8,0.1,-0.9
9.107,0.4,0.4,-0.8
9.109,1.5,0.7,-0.7
9.111,2.6,0.7,-0.5
9.207,3.3,0.8,-0.2
9.208,3.3,0.7,0.1
9.223,2.6,0.6,0.5
9.225,1.7,0.5,0.8
9.229,1.2,0.5,1.1
9.301,1.0,0.6,1.2
9.303,1.0,0.6,1.3
9.31,1.2,0.6,1.5
9.313,1.4,0.7,1.6
9.314,1.6,0.7,1.7
9.399,1.6,0.7,1.7
9.4,1.2,0.6,1.7
9.402,0.6,0.4,1.4
9.403,0.1,0.3,1.1
9.405,-0.1,0.3,0.6
9.507,0.2,0.4,0.2
9.509,0.9,0.6,-0.1
9.51,1.8,0.7,-0.4
9.512,2.7,0.7,-0.5
9.513,3.0,0.6,-0.7
9.615,3.0,0.5,-0.8
9.624,2.6,0.2,-1.0
9.626,2.1,0.1,-1.3
9.627,1.6,0.1,-1.5
9.629,1.3,0.0,-1.8
9.699,1.1,0.0,-2.0
9.71,1.0,0.1,-2.2
9.712,0.9,-0.0,-2.3
9.714,0.8,-0.1,-2.3
9.715,0.6,-0.2,-2.2
9.799,0.4,-0.2,-2.0
9.801,0.1,-0.3,-1.8
9.802,-0.2,-0.3,-1.6
9.804,-0.5,-0.2,-1.2
9.805,-0.7,-0.0,-0.8
9.909,-0.8,0.0,-0.4
9.911,-0.7,-0.0,0.0
9.924,-0.6,0.2,0.5
9.926,-0.2,0.2,0.7
9.927,0.3,0.3,0.8
10.004,0.9,0.5,0.8
10.005,1.5,0.7,0.6
10.007,1.8,0.7,0.4
10.009,1.6,0.6,0.3
10.01,1.1,0.3,0.3
10.102,0.3,0.1,0.3
10.103,-0.5,-0.2,0.4
10.105,-1.2,-0.5,0.6
10.107,-1.9,-0.8,0.8
10.108,-2.3,-0.8,1.0
10.203,-2.6,-0.8,1.2
10.204,-2.6,-0.8,1.3
10.206,-2.4,-0.7,1.3
10.208,-1.9,-0.5,1.3
10.311,-1.3,-0.2,1.2
10.313,-0.6,0.1,1.1
10.32,0.0,0.4,1.1
10.321,0.6,0.6,1.2
10.323,1.0,0.7,1.2
10.398,1.2,0.8,1.1
10.4,1.2,0.7,1.0
10.402,0.9,0.6,0.9
10.407,0.4,0.6,0.8
10.409,-0.2,0.6,0.7
10.504,-1.2,0.3,0.6
10.506,-2.2,-0.3,0.4
10.511,-2.9,-0.5,0.2
10.512,-2.9,-0.3,-0.1
10.514,-2.1,0.0,-0.4
10.599,-0.7,0.3,-0.7
10.601,0.7,0.5,-0.9
10.602,1.9,0.5,-0.9
10.604,2.7,0.4,-1.1
10.61,2.9,0.2,-1.3
10.71,2.8,0.1,-1.4
10.712,2.2,-0.0,-1.5
10.713,1.5,0.0,-1.7
10.715,1.1,0.1,-1.8
10.733,0.7,-0.0,-1.9
10.801,0.4,-0.1,-1.9
10.803,0.3,-0.1,-1.9
10.804,0.3,-0.2,-1.8
10.813,0.4,-0.3,-1.7
10.814,0.4,-0.3,-1.4
10.905,0.3,-0.4,-1.1
10.907,0.1,-0.5,-0.7
10.908,-0.3,-0.7,-0.3
10.91,-0.7,-0.8,0.1
10.911,-1.3,-0.6,0.6
11.009,-1.6,-0.6,1.0
11.011,-1.8,-0.7,1.4
11.013,-1.7,-0.6,1.9
11.015,-1.3,-0.4,2.2
11.017,-0.6,-0.1,2.3
11.11,0.4,0.2,2.4
11.12,1.7,0.5,2.3
11.122,2.6,0.6,2.0
11.132,2.8,0.6,1.5
11.133,2.1,0.3,1.0
11.203,0.8,0.1,0.7
11.205,-0.6,-0.2,0.4
11.21,-1.8,-0.3,0.2
11.212,-2.6,-0.3,0.1
11.214,-2.9,-0.3,0.1
11.306,-2.8,-0.2,0.2
11.309,-2.1,0.0,0.3
11.311,-1.1,0.1,0.3
11.313,-0.1,0.3,0.4
11.315,0.6,0.5,0.5
11.403,1.1,0.5,0.6
11.404,1.3,0.5,0.6
11.406,1.0,0.3,0.6
11.408,0.4,0.2,0.6
11.409,0.2,0.1,0.5
11.513,0.5,-0.0,0.4
11.515,1.0,0.0,0.2
11.524,1.0,0.1,0.1
11.526,0.7,0.0,0.0
11.529,0.0,-0.1,-0.1
11.598,-0.6,-0.1,-0.1
11.6,-1.1,-0.3,-0.1
11.602,-1.2,-0.3,-0.0
11.603,-0.6,-0.0,0.1
11.605,0.5,0.3,0.1
11.702,1.9,0.6,0.1
11.703,3.2,0.7,0.1
11.705,4.1,0.5,0.1
11.707,4.0,0.0,-0.0
11.711,3.2,-0.4,-0.1
11.796,2.2,-0.7,-0.3
11.798,1.4,-1.0,-0.5
11.799,0.9,-1.2,-1.0
11.801,0.4,-1.3,-1.4
11.911,0.1,-1.2,-1.9
11.918,-0.1,-1.0,-2.3
11.927,0.1,-0.7,-2.7
11.929,0.3,-0.3,-2.8
11.931,0.6,0.1,-2.9
12.0,0.9,0.3,-2.8
12.002,1.3,0.5,-2.7
12.003,1.5,0.6,-2.5
12.013,1.7,0.6,-2.3
12.014,1.8,0.6,-2.1
12.1,1.7,0.6,-1.8
12.101,1.5,0.7,-1.6
12.103,1.1,0.7,-1.2
12.11,0.8,0.7,-0.8
12.112,0.4,0.9,-0.2
12.199,0.3,1.1,0.2
12.205,0.5,1.2,0.7
12.208,0.4,1.2,1.1
12.21,-0.0,1.1,1.6
12.211,-0.5,0.9,2.1
12.314,-0.8,0.8,2.5
12.323,-0.6,0.8,2.5
12.325,0.2,0.7,2.4
12.327,1.2,0.8,2.1
12.333,2.0,0.9,1.8
12.404,2.4,0.9,1.3
12.405,2.5,0.8,0.9
12.407,2.3,0.7,0.6
12.409,2.0,0.6,0.4
12.41,1.7,0.5,0.2
12.503,1.2,0.6,0.2
12.504,0.4,0.5,-0.1
12.506,0.4,0.4,-0.1
12.507,0.8,0.5,0.1
12.509,1.0,0.7,0.4
12.61,1.6,1.0,0.7
12.612,1.9,1.1,0.8
12.614,2.4,1.0,0.8
12.615,3.3,0.9,0.8
12.617,3.5,0.8,0.8
12.701,3.9,0.9,0.8
12.704,4.5,0.9,0.7
12.707,4.5,0.9,0.6
12.713,4.3,0.9,0.3
12.718,4.6,0.8,0.1
12.803,5.1,0.7,-0.1
12.805,5.2,0.6,-0.1
12.81,4.9,-0.1,-0.2
12.811,4.4,-0.4,-0.3
12.91,3.7,-0.2,-0.5
12.912,3.1,-0.2,-0.7
12.914,2.8,-0.4,-0.7
12.915,2.6,-0.4,-0.5
12.917,2.6,-0.6,-0.2
12.918,2.6,-0.9,0.1
13.015,2.4,-1.0,0.3
13.016,2.3,-1.0,0.4
13.018,2.3,-1.0,0.2
13.02,2.3,-1.0,0.0
13.029,2.0,-0.6,-0.2
13.1,1.4,-0.3,-0.3
13.103,0.6,-0.1,-0.5
13.104,0.0,0.2,-0.6
13.109,-0.3,0.6,-0.8
13.116,-0.4,1.0,-0.8
13.198,-0.1,1.3,-0.7
13.205,0.6,1.5,-0.6
13.207,1.8,1.5,-0.4
13.208,3.1,1.5,-0.4
13.21,4.1,1.6,-0.5
13.31,4.6,1.6,-0.6
13.311,4.6,1.5,-0.8
13.313,4.0,1.2,-1.0
13.315,2.9,0.8,-1.1
13.316,1.3,0.4,-1.2
13.414,-0.2,0.0,-1.3
13.416,-1.0,-0.1,-1.4
13.418,-1.1,-0.1,-1.4
13.428,-0.7,-0.1,-1.4
13.497,-0.1,-0.1,-1.3
13.502,0.3,-0.0,-1.1
13.504,0.3,-0.0,-0.9
13.508,0.1,-0.0,-0.6
13.51,0.0,-0.1,-0.4
13.641,0.2,-0.1,-0.2
13.643,0.3,-0.1,-0.1
13.645,0.4,-0.1,-0.0
13.647,0.2,-0.1,-0.0
13.654,-0.2,-0.1,-0.1
13.703,-0.1,0.0,-0.1
13.705,0.2,0.3,0.1
13.708,0.6,0.5,0.2
13.71,0.9,0.6,0.1
13.712,1.5,0.4,0.0
13.81,2.1,0.2,-0.2
13.812,2.3,-0.1,-0.6
13.814,2.2,-0.6,-1.0
13.823,2.0,-1.1,-1.3
13.825,1.8,-1.7,-1.7
13.905,1.8,-2.0,-2.1
13.906,1.7,-2.3,-2.3
13.908,1.6,-2.5,-2.5
13.91,1.7,-2.6,-2.5
13.911,1.9,-2.7,-2.5
14.001,2.3,-2.7,-2.4
14.003,2.6,-2.6,-2.1
14.01,2.8,-2.6,-1.6
14.013,2.6,-2.5,-0.9
14.014,2.4,-2.0,-0.1
14.098,2.8,-1.5,0.5
14.099,3.4,-1.0,0.9
14.101,3.4,-0.4,1.0
14.112,3.0,0.0,1.1
14.122,2.4,0.3,1.2
14.21,1.6,0.5,1.4
14.212,1.2,0.7,1.6
14.223,0.7,0.9,1.6
14.233,0.3,0.9,1.5
14.234,0.1,0.9,1.2
14.307,0.9,0.8,0.8
14.309,0.7,0.7,0.4
14.311,-0.3,0.5,0.2
14.313,-1.0,0.3,0.2
14.315,-1.3,0.3,0.2
14.397,-1.0,0.4,0.2
14.399,-0.7,0.4,0.2
14.408,-0.7,0.4,0.3
14.41,-0.4,0.3,0.4
14.412,-0.3,0.3,0.4
14.501,-0.5,0.4,0.3
14.503,-0.8,0.4,0.3
14.509,-0.1,0.3,0.4
14.511,-0.1,0.3,0.3
14.513,0.0,0.3,0.3
14.617,-0.0,0.3,0.4
14.633,-0.1,0.3,0.3
14.635,-0.1,0.2,0.4
14.641,-0.1,0.2,0.4
14.642,-0.3,0.3,0.3
14.701,-0.4,0.3,0.2
14.702,-0.3,0.4,0.2
14.704,0.3,0.3,0.4
14.708,0.1,0.4,0.4
14.714,-0.1,0.4,0.5
14.8,-0.1,0.4,0.5
14.802,-0.0,0.5,0.5
14.804,-0.2,0.6,0.5
14.806,-0.2,0.6,0.6
14.807,-0.3,0.6,0.6
14.912,-0.3,0.6,0.7
14.914,-0.2,0.6,0.4
14.915,-0.4,0.6,0.3
14.918,0.6,0.4,0.3
14.921,0.1,0.2,0.1
15.003,-0.3,0.1,-0.2
15.005,0.0,0.1,-0.2
15.006,-0.2,0.1,-0.2
15.008,-0.4,0.1,-0.1
15.009,-0.4,0.0,-0.1
15.095,-0.4,-0.0,-0.1
15.097,-0.3,-0.1,-0.1
15.103,-0.2,-0.1,-0.2
15.106,-0.2,-0.1,-0.2
15.199,-0.5,-0.1,-0.3
15.2,-0.3,-0.2,-0.2
15.202,-0.1,-0.3,-0.3
15.209,-0.1,-0.3,-0.5
15.212,0.2,-0.4,-0.4
15.318,0.3,-0.4,-0.4
15.32,0.3,-0.4,-0.4
15.322,0.2,-0.5,-0.2
15.324,-0.1,-0.5,-0.3
15.326,-0.1,-0.2,-0.2
15.401,-0.1,0.0,0.0
15.403,-0.2,0.1,0.2
15.406,-0.2,0.3,0.5
15.408,-0.0,0.4,0.5
15.414,0.3,0.3,0.2
15.503,0.5,0.6,0.2
15.504,0.6,0.7,0.2
15.506,0.2,0.6,0.2
15.508,0.1,0.5,0.2
15.509,0.6,0.3,0.1
15.603,0.7,0.1,-0.1
15.604,0.1,-0.2,-0.2
15.606,-0.4,-0.4,-0.2
15.608,-0.5,-0.5,-0.1
15.609,-0.4,-0.6,0.0
15.712,-0.4,-0.6,0.2
15.715,-0.4,-0.6,0.3
15.717,-0.3,-0.7,0.3
15.719,-0.3,-0.9,0.3
15.761,-0.5,-1.2,0.1
15.826,-0.4,-1.3,-0.1
15.828,0.4,-1.4,-0.4
15.831,0.9,-0.7,-0.3
15.839,0.6,-0.2,-0.1
15.84,-0.3,-0.9,0.1
15.897,-0.4,-1.2,-0.1
15.898,0.1,-0.7,-0.4
15.9,0.3,-0.5,-0.5
15.901,0.2,-0.6,-0.4
15.912,0.2,-0.3,-0.2
16.002,0.4,-0.0,-0.1
16.003,0.1,-0.0,-0.1
16.006,-0.7,-0.3,-0.2
16.007,-1.8,-0.5,-0.4
16.009,-1.7,-0.4,-0.5
16.119,-0.9,-0.7,-0.3
16.121,-2.0,-0.8,-0.4
16.122,-2.4,-1.6,-0.6
16.135,-1.5,-1.8,0.0
16.136,-1.3,-1.2,0.4
16.199,-1.1,-1.3,0.5
16.201,-1.2,-1.4,0.5
16.203,-1.1,-0.8,0.5
16.204,-0.7,-0.6,0.4
16.212,-0.5,-0.3,0.4
16.322,-0.2,-0.0,0.6
16.324,-0.3,0.0,0.6
16.326,0.0,-0.1,0.6
16.327,-0.2,-0.1,0.6
16.329,-0.8,-0.1,0.6
16.402,-1.0,0.1,0.7
16.405,-1.0,0.2,0.8
16.407,-1.5,0.2,0.9
16.413,-2.5,0.3,1.2
16.414,-4.0,0.5,1.8
16.416,-4.2,0.6,2.5
16.514,-3.1,0.4,2.9
16.527,-1.7,0.6,2.9
16.53,-1.0,0.8,3.0
16.531,-1.2,0.8,3.1
16.598,-2.3,0.8,2.6
16.6,-2.4,0.4,2.2
16.602,-1.3,-0.1,1.6
16.603,0.1,-0.4,1.5
16.702,1.3,-0.4,1.2
16.703,1.5,-0.3,1.3
16.705,1.1,-0.7,1.7
16.707,1.1,-0.9,1.8
16.737,2.0,-1.2,1.8
16.801,2.3,-1.3,1.3
16.803,1.9,-1.3,0.8
16.805,1.0,-1.1,0.8
16.806,0.8,-0.3,1.3
16.808,0.9,-0.2,1.5
16.915,0.1,-0.1,1.7
16.917,-0.4,-0.3,1.8
16.934,-0.5,-0.1,1.2
16.936,0.3,-0.3,1.4
16.94,-0.2,-0.2,1.2
17.004,-0.3,-0.2,1.2
17.006,-0.6,-0.2,1.1
17.007,-1.4,-0.3,0.6
17.009,-1.4,-0.3,0.4
17.014,-0.9,-0.4,0.4
17.097,-0.8,-0.3,0.3
17.098,-0.5,-0.1,0.2
17.1,0.0,0.1,0.3
17.102,0.6,0.2,0.2
17.103,0.6,0.3,0.1
17.197,0.1,0.3,0.1
17.198,-0.3,0.1,0.1
17.2,-0.5,0.1,0.1
17.202,-0.9,-0.0,0.2
17.208,-1.5,0.0,0.2
17.315,-1.5,-0.0,0.2
17.326,-1.3,-0.2,0.3
17.328,-1.3,-0.2,0.3
17.33,-1.5,-0.1,0.2
17.331,-1.6,0.0,0.2
17.4,-1.5,-0.1,0.4
17.402,-1.2,-0.2,0.5
17.404,-1.1,-0.2,0.7
17.405,-0.8,-0.6,0.7
17.411,-1.3,-0.6,0.4
17.5,-1.2,-0.5,0.5
17.502,-0.8,-0.3,0.5
17.503,-0.8,-0.1,0.6
17.51,-0.6,0.0,0.6
17.512,-0.2,0.1,0.8
17.606,0.2,0.2,0.8
17.608,0.3,0.1,0.7
17.61,-0.0,0.2,0.7
17.617,-0.2,0.3,0.5
17.618,0.1,0.2,0.3
17.735,0.3,0.1,0.2
17.737,0.4,0.1,-0.2
17.738,0.2,0.1,-0.2
17.74,0.1,-0.1,-0.2
17.741,-0.3,-0.1,-0.1
17.801,-0.5,-0.1,-0.1
17.803,-0.7,-0.1,-0.1
17.805,-0.4,-0.0,-0.1
17.806,0.0,-0.1,-0.2
17.808,-0.1,-0.1,-0.4
17.897,0.1,-0.2,-0.3
17.903,0.2,-0.3,-0.4
17.905,0.0,-0.4,-0.4
17.906,-0.3,-0.4,-0.5
17.908,-0.1,-0.4,-0.4
18.005,0.1,-0.6,-0.4
18.007,-0.1,-0.6,-0.5
18.008,0.2,-0.6,-0.2
18.01,0.6,-1.0,-0.1
18.023,0.5,-1.1,-0.3
18.099,0.3,-0.6,-0.2
18.101,0.4,-0.2,-0.2
18.102,0.7,0.0,-0.3
18.109,1.1,0.3,-0.3
18.11,1.3,0.6,0.1
18.197,1.1,0.7,0.0
18.202,0.7,0.6,0.1
18.203,-0.1,0.6,0.3
18.205,-0.7,0.6,0.5
18.206,-0.8,0.6,0.4
18.305,-0.7,0.6,0.3
18.306,-0.3,0.5,0.4
18.308,-0.2,0.4,0.4
18.309,-0.7,0.3,0.3
18.311,-1.0,-0.0,0.1
18.408,-0.5,-0.3,0.1
18.41,-0.2,-0.6,0.0
18.412,0.0,-0.8,-0.1
18.421,0.1,-1.0,-0.2
18.5,0.1,-1.1,-0.3
18.501,0.1,-1.2,-0.4
18.503,0.1,-1.3,-0.4
18.505,-0.0,-1.1,-0.4
18.506,-0.2,-0.8,-0.1
18.603,-0.3,-0.6,0.1
18.605,-0.1,-0.7,0.2
18.606,0.0,-0.3,0.4
18.608,0.3,-0.1,-0.0
18.61,0.6,0.3,-0.1
18.729,1.0,0.7,-0.0
18.734,1.0,0.8,-0.0
18.736,0.5,0.7,0.1
18.738,-0.3,0.5,0.2
18.739,-1.0,0.4,0.2
18.808,-1.2,0.3,0.2
18.817,-0.8,0.3,0.0
18.819,-0.2,0.4,-0.2
18.83,0.1,0.4,-0.3
18.831,-0.3,0.4,-0.7
18.898,-0.2,0.1,-0.7
18.9,0.4,-0.1,-0.8
18.901,0.6,-0.5,-0.8
18.906,0.5,-1.0,-0.7
18.908,0.5,-1.4,-0.6
19.004,0.4,-1.6,-0.5
19.006,0.3,-1.6,-0.5
19.008,0.3,-1.5,-0.3
19.009,0.5,-1.4,-0.0
19.011,0.1,-1.5,0.2
19.102,-0.5,-1.3,0.2
19.103,-0.6,-0.9,0.4
19.105,-0.7,-0.2,0.7
19.107,-1.2,0.4,0.8
19.109,-1.6,0.7,1.1
19.212,-2.1,0.9,1.3
19.214,-2.2,1.0,1.6
19.224,-2.0,1.3,1.9
19.225,-2.3,1.4,2.1
19.236,-3.2,1.7,1.9
19.278,-4.2,1.7,2.2
19.28,-4.2,1.4,2.7
19.282,-3.6,0.8,3.0
19.283,-3.1,0.1,2.7
19.285,-2.7,-0.2,2.3
19.402,-2.1,-0.4,2.1
19.404,-1.4,-0.6,1.9
19.405,-1.7,-0.6,1.5
19.407,-2.7,-0.6,1.3
19.508,-2.7,-0.7,1.1
19.509,-1.8,-1.2,1.1
19.511,-0.1,-1.7,1.7
19.512,0.3,-2.0,1.9
19.514,0.0,-2.6,2.1
19.516,-0.2,-2.7,0.5
19.613,-0.8,-2.6,-0.5
19.627,-1.0,-2.6,-0.6
19.628,-1.1,-2.3,-0.3
19.63,-0.9,-1.9,0.3
19.632,-1.1,-1.9,0.5
19.717,-1.5,-1.9,0.8
19.719,-1.6,-1.8,0.6
19.72,-1.3,-1.7,0.4
19.722,-0.0,-1.5,0.1
19.724,0.4,-1.4,0.1
19.803,-0.1,-1.3,0.5
19.805,-0.6,-1.0,0.7
19.81,-1.1,-0.8,0.7
19.811,-0.4,-0.9,0.5
19.815,0.7,-0.8,0.7
19.906,1.3,-0.5,0.8
19.913,1.7,-0.5,0.6
19.915,2.3,-0.5,0.6
19.917,3.2,-0.5,0.6
19.918,3.1,-0.3,0.4
19.998,2.8,0.1,0.2
20.004,2.1,0.2,0.5
20.006,0.7,0.2,0.6
20.007,-0.0,0.2,0.7
20.009,0.1,0.1,0.6
20.103,0.1,-0.0,0.5
20.105,0.0,-0.2,0.5
20.107,-0.1,-0.3,0.4
20.108,0.0,-0.4,0.3
20.201,0.3,-0.3,0.3
20.202,0.3,-0.1,0.2
20.204,0.4,0.0,0.2
20.206,0.3,0.1,0.3
20.207,-0.0,-0.0,0.4
20.309,-0.4,-0.0,0.6
20.31,-0.4,-0.1,0.8
20.312,-0.5,-0.1,0.8
20.313,-0.9,-0.1,0.8
20.32,-1.4,-0.2,0.7
20.399,-1.1,-0.2,0.6
20.4,-0.5,-0.2,0.7
20.402,0.3,-0.1,0.7
20.414,0.6,-0.0,0.7
20.415,0.4,0.0,0.8
20.5,0.1,0.1,0.7
20.501,0.1,0.2,0.6
20.503,0.2,0.2,0.6
20.509,0.0,0.1,0.5
20.511,-0.4,0.0,0.4
20.598,-0.6,-0.0,0.3
20.599,-0.4,0.1,-0.3
20.601,1.5,0.4,-0.3
20.602,3.3,0.6,-0.3
20.604,4.0,0.7,-0.3
20.713,2.9,0.2,0.2
20.72,-0.2,-0.2,0.5
20.722,-1.0,-0.1,0.6
20.723,-0.4,0.1,0.7
20.733,-0.2,0.2,0.5
20.8,-0.1,0.1,0.5
20.802,-0.1,-0.0,0.5
20.806,-0.1,0.1,0.7
20.808,0.1,0.1,0.6
20.811,-0.6,0.2,0.0
20.898,-1.3,0.3,-0.4
20.9,-1.2,0.2,-0.7
20.902,-0.3,0.3,-0.6
20.903,0.5,0.3,-0.5
20.905,0.6,0.3,-0.5
20.996,0.3,0.3,-0.6
21.002,0.0,0.4,-0.6
21.004,0.4,0.3,-0.5
21.006,1.1,0.2,-0.4
21.007,1.0,0.1,-0.4
21.104,0.5,-0.1,-0.5
21.116,0.1,-0.1,-0.6
21.118,-0.1,-0.1,-0.6
21.128,-0.2,-0.2,-0.6
21.13,-0.3,-0.1,-0.5
21.198,-0.3,0.2,-0.2
21.201,0.0,0.3,-0.1
21.206,0.3,0.4,0.0
21.208,0.5,0.6,-0.1
21.209,0.5,0.8,-0.0
21.321,0.4,0.8,-0.0
21.323,0.1,0.7,-0.2
21.324,-0.0,0.7,-0.1
21.326,-0.4,0.7,-0.0
21.327,-0.7,0.8,0.1
21.399,-0.6,0.9,0.1
21.4,-0.3,0.9,0.2
21.402,-0.1,1.0,0.1
21.404,-0.0,0.9,0.0
21.405,0.5,0.7,-0.1
21.407,0.9,0.4,-0.2
21.512,0.5,0.2,-0.4
21.521,0.3,0.2,-0.4
21.525,0.5,0.1,-0.4
21.53,0.5,-0.1,-0.5
21.599,0.3,-0.2,-0.4
21.601,0.1,-0.2,-0.3
21.602,-0.3,-0.3,-0.1
21.604,-0.5,-0.5,0.1
21.609,-0.8,-0.7,0.2
21.707,-1.0,-0.9,0.3
21.709,-0.9,-1.2,0.2
21.71,-0.9,-1.6,0.1
21.712,-0.7,-1.8,-0.1
21.78,0.2,-1.9,-0.6
21.782,1.0,-1.9,-1.0
21.784,1.2,-1.7,-1.1
21.787,1.1,-1.5,-0.6
21.789,0.4,-1.1,-0.0
21.906,-0.4,-0.7,0.7
21.907,-1.5,-0.8,0.8
21.92,-1.7,-0.8,0.7
21.922,-1.4,-0.7,0.6
21.979,-1.3,-0.4,0.5
21.981,-1.0,-0.1,0.4
21.983,-0.7,0.1,0.3
21.987,-0.6,0.3,0.2
21.989,-0.2,0.2,0.1
22.079,-0.0,0.1,-0.1
22.08,0.1,0.0,-0.3
22.082,0.3,0.1,-0.5
22.083,0.5,0.2,-0.6
22.088,0.8,0.0,-0.7
22.17,0.8,-0.2,-0.6
22.172,0.7,-0.4,0.1
22.174,0.3,-0.4,0.4
22.175,-0.2,-0.4,0.5
22.177,-0.4,-0.2,0.9
22.317,-0.2,0.3,1.1
22.319,-0.4,0.6,1.0
22.333,-0.3,0.6,0.7
22.334,-0.4,0.7,0.6
22.336,-0.9,0.8,0.5
22.402,-1.1,0.9,0.4
22.404,-1.1,1.0,0.2
22.412,-1.2,1.3,0.3
22.414,-1.2,1.4,0.3
22.415,-0.7,1.5,0.2
22.476,-0.8,1.7,0.2
22.478,-1.1,1.7,0.1
22.48,-0.7,1.7,0.2
22.482,-0.6,1.8,0.1
22.483,-0.7,1.9,0.1
22.485,-1.0,1.8,0.1
22.573,-0.6,1.6,0.2
22.575,-0.5,1.4,0.2
22.576,-1.2,1.6,0.1
22.578,-2.3,2.0,0.3
22.707,-2.6,2.8,0.9
22.731,-3.4,3.6,1.2
22.733,-5.3,3.2,1.1
22.735,-6.2,2.3,1.2
22.736,-4.0,1.5,1.1
22.802,-1.6,0.8,0.8
22.804,-0.5,0.9,0.4
22.806,0.2,1.0,0.1
22.81,0.2,0.9,-0.0
22.812,-0.6,0.6,-0.2
22.814,-1.9,0.3,-0.4
22.896,-0.7,-0.3,-0.5
22.897,1.6,-0.4,-0.2
22.899,2.3,0.0,-0.4
22.905,1.8,0.5,-0.2
22.906,1.9,0.6,0.1
23.004,2.2,0.6,0.4
23.006,1.8,0.6,0.6
23.007,1.0,0.6,0.8
23.009,0.1,0.5,1.0
23.029,-1.3,0.3,0.8
23.095,-1.8,0.4,0.4
23.097,-0.7,0.5,0.7
23.099,0.3,0.3,0.6
23.106,0.8,0.4,0.5
23.108,2.1,0.6,0.5
23.195,3.3,0.7,0.5
23.198,3.7,0.7,0.5
23.199,3.8,0.9,0.5
23.206,4.1,1.0,0.3
23.207,4.1,1.1,0.0
23.295,3.9,1.1,-0.4
23.301,4.0,0.8,-0.4
23.303,5.2,0.7,-0.1
23.304,5.8,0.7,-0.3
23.306,5.3,0.7,-0.4
23.417,4.6,0.8,-0.1
23.418,5.1,0.9,-0.1
23.42,6.4,1.0,-0.3
23.432,6.8,0.9,-0.4
23.496,6.3,1.0,-0.3
23.497,5.4,1.1,-0.2
23.504,5.0,1.2,-0.1
23.506,4.7,1.5,-0.0
23.509,4.3,1.5,-0.0
23.575,3.9,1.5,0.1
23.577,3.8,1.5,0.2
23.579,3.8,1.4,0.2
23.581,3.7,1.2,0.2
23.582,3.6,1.0,0.0
23.668,3.7,0.9,-0.1
23.669,4.0,0.8,-0.3
23.671,4.2,0.5,-0.4
23.672,4.4,0.2,-0.3
23.803,4.7,0.1,-0.2
23.806,4.4,-0.1,-0.0
23.807,3.5,-0.3,0.2
23.814,2.5,-0.4,0.4
23.824,1.9,-0.3,0.4
23.906,2.0,-0.2,0.5
23.908,2.2,-0.2,0.5
23.913,2.7,-0.2,0.5
23.915,3.0,-0.1,0.5
23.916,2.8,-0.1,0.3
23.918,2.4,-0.1,0.1
23.999,1.9,0.1,-0.1
24.001,1.4,0.2,-0.4
24.002,1.2,0.2,-0.8
24.007,1.2,0.2,-1.2
24.009,1.4,0.2,-1.7
24.096,1.9,0.3,-2.2
24.097,4.0,0.2,-2.4
24.099,8.3,0.0,-1.5
24.1,10.3,-0.8,-0.5
24.102,5.6,-1.4,-1.7
24.21,1.1,-0.4,-2.0
24.217,-1.0,0.4,-1.9
24.231,-1.4,0.7,-0.7
24.233,-0.5,0.7,-0.5
24.235,0.7,0.6,-0.4
24.297,1.9,0.6,-0.4
24.299,2.6,0.5,-0.4
24.301,2.5,0.5,-0.4
24.302,1.4,0.4,-0.3
24.304,-0.0,0.3,-0.2
24.41,-1.3,0.1,-0.1
24.412,-2.2,-0.2,0.0
24.414,-2.9,-0.6,0.1
24.415,-3.1,-0.9,0.2
24.417,-3.2,-1.0,0.3
24.473,-3.1,-1.0,0.3
24.475,-2.5,-0.9,0.4
24.477,-1.7,-0.8,0.4
24.483,-1.0,-0.7,0.5
24.484,-0.3,-0.4,0.7
24.597,0.3,-0.1,0.9
24.642,0.7,0.1,1.0
24.645,0.8,0.3,1.1
24.702,0.9,0.4,1.2
24.704,0.9,0.4,1.1
24.705,0.8,0.5,1.0
24.707,0.8,0.5,0.8
24.708,0.5,0.4,0.6
24.782,0.3,0.4,0.4
24.783,0.5,0.3,0.1
24.785,1.2,0.3,-0.1
24.787,2.6,0.4,-0.3
24.788,3.8,0.6,-0.4
24.79,4.8,0.4,-0.6
24.791,6.0,-0.1,-0.8
24.865,6.6,-0.6,-0.9
24.871,7.2,-1.2,-1.0
24.872,7.7,-2.2,-1.2
25.006,7.5,-3.0,-1.6
25.007,6.6,-3.8,-1.8
25.018,5.3,-4.6,-1.8
25.024,4.1,-5.0,-2.1
25.026,3.3,-5.2,-2.3
25.074,3.1,-5.2,-2.5
25.075,2.9,-4.9,-2.4
25.077,2.6,-4.1,-2.1
25.079,2.4,-3.5,-1.8
25.081,2.0,-3.1,-1.5
25.176,1.7,-2.5,-1.4
25.178,1.7,-2.1,-1.2
25.179,1.4,-1.7,-1.1
25.181,1.2,-1.3,-0.9
25.182,1.0,-1.1,-0.9
25.272,0.9,-0.8,-0.8
25.279,0.8,-0.6,-0.7
25.281,0.7,-0.4,-0.6
25.282,0.5,-0.3,-0.5
25.284,0.3,-0.3,-0.4
25.444,0.4,-0.2,-0.2
25.456,0.1,-0.2,-0.1
25.458,-0.0,-0.2,-0.1
25.459,0.0,-0.2,0.0
25.461,0.0,-0.2,0.1
25.531,-0.0,-0.1,0.1
25.532,-0.0,-0.0,0.1
25.534,0.0,-0.0,0.1
25.535,-0.0,0.0,0.1
25.537,-0.1,0.0,0.1
25.538,-0.1,0.1,0.2
25.607,-0.1,0.1,0.2
25.612,-0.1,-0.0,0.2
25.613,-0.1,-0.1,0.2
25.615,-0.2,-0.1,0.2
25.617,-0.2,-0.1,0.2
25.708,-0.1,-0.1,0.2
25.715,-0.0,-0.1,0.1
25.717,-0.0,-0.1,0.1
25.719,-0.0,-0.0,0.1
25.729,-0.0,-0.0,0.1
25.8,-0.0,-0.0,0.0
25.802,-0.0,0.0,0.0
25.804,-0.0,0.0,-0.0
25.805,0.0,0.0,-0.0
25.807,0.0,0.0,-0.1
25.9,0.0,0.0,-0.1
25.902,0.1,0.0,-0.1
25.906,0.1,0.0,-0.1
25.908,0.1,-0.0,-0.1
25.912,0.1,-0.0,-0.1
25.995,0.0,-0.0,-0.1
25.996,-0.0,-0.0,-0.0
25.999,0.0,-0.0,-0.0
26.001,0.0,-0.0,-0.1
26.002,0.0,0.0,-0.0
26.082,0.1,0.0,-0.0
26.084,0.1,0.0,-0.0
26.085,0.0,0.0,-0.0
26.104,0.0,-0.0,-0.0
26.105,0.1,0.0,-0.0
26.176,0.1,-0.0,-0.0
26.187,0.1,-0.0,-0.1
26.189,0.1,-0.0,-0.1
26.191,0.1,-0.1,-0.2
