vertical_Accel_x,vertical_Accel_y,vertical_Accel_z,accel_time_list
0.423,2.445,-9.585,0.0
0.762,2.372,-9.443,0.002
0.879,2.296,-9.268,0.004
0.802,2.34,-8.853,0.102
0.33,1.966,-9.045,0.104
0.279,2.096,-9.068,0.106
0.538,2.028,-9.157,0.107
0.577,1.955,-9.215,0.109
0.881,2.336,-8.621,0.111
0.44,2.468,-8.211,0.202
0.56,2.732,-8.289,0.208
0.357,2.091,-8.836,0.21
0.823,1.845,-9.085,0.211
0.806,1.321,-8.96,0.213
0.1,0.7,-8.3,0.214
0.269,1.477,-6.908,0.301
-1.226,1.937,-5.821,0.302
-2.076,2.482,-5.473,0.304
-2.304,2.64,-5.587,0.305
-1.9,4.119,-4.392,0.401
-1.8,4.052,-4.466,0.403
-2.0,4.408,-4.519,0.404
-2.7,5.457,-4.253,0.406
-3.6,6.304,-4.209,0.407
-1.751,8.498,-0.576,0.504
-2.3,8.4,0.5,0.505
-3.11,8.661,0.826,0.507
-3.953,9.789,1.018,0.509
-4.863,10.146,1.691,0.51
-3.123,9.679,5.353,0.601
-3.6,9.0,5.4,0.603
-4.023,9.479,5.253,0.604
-5.315,9.332,5.57,0.606
-5.998,8.638,6.504,0.608
-1.756,7.508,9.92,0.702
-2.112,7.816,10.64,0.703
-2.748,8.664,11.56,0.705
-3.18,9.24,13.1,0.707
-3.224,9.632,14.48,0.717
-1.99,1.538,16.808,0.801
-1.568,0.79,14.878,0.802
-0.452,0.91,13.262,0.804
0.094,2.043,12.269,0.806
-0.064,3.295,11.899,0.807
0.133,3.433,11.633,0.901
0.229,3.106,10.903,0.902
0.071,2.654,10.277,0.904
0.424,2.478,9.772,0.906
0.676,2.442,9.288,0.907
0.618,1.082,8.976,1.001
0.565,0.735,8.847,1.004
0.575,0.725,9.178,1.011
0.649,1.151,8.857,1.013
0.888,0.912,8.782,1.014
0.72,-2.3,8.96,1.101
0.84,-1.1,9.62,1.102
0.356,-1.1,10.208,1.108
0.204,-0.6,10.372,1.118
0.284,-0.3,10.812,1.12
-0.212,0.1,11.084,1.201
-0.348,-0.2,10.836,1.202
-0.168,-0.6,10.576,1.204
0.272,-1.1,10.496,1.209
0.548,-1.2,10.264,1.211
0.744,-1.5,9.592,1.301
1.312,-1.4,8.716,1.302
1.356,-1.8,8.208,1.304
1.44,-1.5,7.92,1.306
0.788,-1.7,9.084,1.307
1.639,-2.2,11.116,1.401
1.492,-2.7,13.719,1.407
0.929,-3.2,15.662,1.409
0.44,-3.3,16.303,1.411
-0.121,-3.0,15.219,1.412
1.224,-1.061,13.676,1.502
1.386,-0.698,12.814,1.505
2.141,0.38,13.259,1.514
1.98,0.717,14.02,1.516
1.728,1.096,14.272,1.523
-0.94,4.92,13.0,1.601
-0.907,4.153,12.133,1.602
-0.156,3.744,11.578,1.604
-0.193,4.147,11.267,1.606
-0.72,3.46,10.7,1.607
-1.938,0.654,9.915,1.701
-1.415,0.162,9.346,1.702
-1.062,-0.054,9.085,1.707
-1.169,-0.023,8.608,1.709
-1.169,-0.223,8.008,1.71
-2.09,-0.343,7.547,1.8
-2.257,-0.177,7.314,1.802
-2.059,-0.008,7.165,1.803
-1.804,0.437,7.001,1.805
-1.945,1.587,6.685,1.901
-1.966,1.585,6.311,1.902
-1.866,1.585,6.011,1.912
-1.662,1.794,6.079,1.913
-2.032,1.47,6.423,1.915
-1.057,1.737,6.715,2.001
-0.359,2.153,6.618,2.002
0.369,2.064,7.462,2.011
0.497,1.975,8.006,2.012
1.026,2.127,8.348,2.014
0.668,0.97,10.023,2.101
0.585,1.962,11.628,2.103
0.068,2.97,12.723,2.105
-1.043,4.242,13.019,2.106
-1.892,4.919,13.036,2.108
-2.366,8.998,10.955,2.201
-2.558,9.775,9.911,2.203
-2.143,9.93,8.925,2.205
-3.025,9.074,9.666,2.208
-3.368,7.804,10.691,2.21
1.582,4.242,12.589,2.309
1.618,4.158,12.411,2.319
1.193,3.353,12.033,2.321
0.522,3.822,10.889,2.322
0.162,3.802,9.589,2.324
-0.931,2.731,10.52,2.4
-0.753,3.053,11.671,2.402
-0.841,4.241,9.988,2.404
-0.624,3.824,7.465,2.409
0.957,2.943,5.702,2.411
1.032,-0.9,4.676,2.505
0.332,-2.2,4.576,2.507
-0.544,-1.8,6.508,2.508
-1.348,-1.3,7.836,2.51
-1.736,-0.9,8.452,2.512
-1.558,-2.407,7.855,2.602
-0.786,-2.436,8.085,2.604
0.021,-2.653,8.828,2.606
0.488,-2.698,9.384,2.607
0.331,-3.322,9.574,2.609
0.728,-5.843,8.649,2.7
0.636,-6.079,8.775,2.702
0.598,-6.133,8.964,2.708
0.998,-5.633,8.764,2.709
0.863,-5.388,8.807,2.711
2.803,-3.758,10.503,2.781
2.86,-4.166,11.86,2.783
3.08,-4.783,12.38,2.785
2.692,-5.413,12.892,2.786
2.655,-5.736,13.755,2.788
2.04,-3.72,15.7,2.899
1.276,-2.768,16.8,2.901
0.608,-1.844,15.4,2.903
-0.008,-1.456,14.7,2.904
0.869,1.462,14.531,2.977
0.594,1.615,13.906,2.979
0.527,1.082,12.973,2.98
1.027,0.282,12.173,2.982
1.987,-0.084,12.013,2.984
1.685,-0.112,11.515,2.996
-1.715,0.962,10.346,3.074
-1.892,0.369,9.677,3.076
-1.808,0.131,9.223,3.077
-1.723,0.492,9.269,3.079
-3.214,-0.119,8.854,3.175
-3.342,-0.258,8.461,3.176
-3.039,-0.561,7.985,3.178
-2.878,-0.756,7.644,3.18
-1.994,-1.13,7.437,3.276
-1.443,-0.613,7.346,3.277
-0.904,-0.18,7.142,3.279
-0.311,-0.239,6.327,3.281
0.051,-0.383,5.509,3.282
-0.4,-0.6,5.2,3.377
-0.068,-0.48,5.324,3.378
0.328,-0.52,5.996,3.38
0.632,-0.28,6.724,3.382
0.924,0.14,7.068,3.383
0.992,3.5,7.062,3.476
0.732,4.271,7.774,3.478
0.091,4.829,8.242,3.479
-0.607,5.271,8.981,3.481
-1.656,5.657,9.991,3.483
-0.311,7.389,10.344,3.575
-0.737,7.963,10.768,3.577
-0.556,8.344,10.622,3.579
-0.284,8.916,10.263,3.586
-0.852,10.048,10.188,3.588
2.204,9.563,10.861,3.7
1.629,9.371,10.806,3.702
1.406,8.894,10.441,3.704
1.314,8.12,9.563,3.705
1.273,7.461,8.475,3.707
2.047,6.478,7.412,3.802
1.971,6.057,6.814,3.803
1.91,5.908,6.659,3.805
1.378,5.602,6.39,3.807
1.09,4.892,6.541,3.816
0.835,4.388,7.061,3.818
1.339,2.645,7.597,3.901
1.589,2.043,7.44,3.903
1.914,1.944,7.318,3.909
1.903,2.387,7.258,3.91
1.714,2.544,7.118,3.912
0.185,2.181,8.016,4.0
-0.271,2.586,8.257,4.002
-0.64,3.1,8.48,4.007
-0.795,3.381,8.876,4.008
-0.787,2.967,9.173,4.01
-0.49,1.39,9.531,4.1
-0.047,1.447,9.429,4.102
0.355,1.445,9.116,4.104
0.48,1.02,8.737,4.105
0.79,0.41,8.469,4.107
0.782,0.218,8.524,4.2
0.557,-0.157,9.002,4.201
-0.045,-0.155,10.016,4.211
-0.814,0.214,11.196,4.212
-1.745,0.545,13.316,4.214
-0.53,2.16,15.889,4.299
-0.202,1.705,15.13,4.301
0.736,0.629,12.437,4.306
0.821,0.259,11.931,4.308
0.286,0.528,12.079,4.309
-0.234,4.038,11.147,4.4
-1.129,3.916,11.077,4.402
-1.534,3.338,10.547,4.408
-1.647,2.689,10.115,4.41
-1.53,2.72,9.991,4.411
-1.38,4.216,9.518,4.504
-1.057,4.214,9.329,4.506
-0.924,4.02,9.398,4.508
-0.924,4.02,9.398,4.509
-1.237,4.031,9.447,4.511
-1.705,5.05,8.861,4.6
-1.562,5.256,8.992,4.61
-1.367,5.627,9.113,4.612
-1.576,5.948,9.295,4.614
-1.967,6.187,9.193,4.621
-1.158,7.334,7.497,4.7
-1.182,7.129,7.042,4.702
-1.239,7.254,7.01,4.707
-1.303,7.012,6.793,4.708
-1.129,6.715,6.566,4.71
-3.05,7.246,5.262,4.8
-3.099,7.391,5.425,4.802
-3.157,7.817,5.764,4.803
-3.177,8.595,6.169,4.805
-3.266,9.197,6.342,4.807
-3.443,10.183,6.636,4.905
-4.15,11.846,6.962,4.907
-3.264,11.779,6.491,4.909
-2.254,11.09,5.939,4.911
-1.093,10.338,4.873,4.912
-0.145,9.93,2.008,5.006
-1.351,9.534,0.358,5.008
-2.851,9.834,0.758,5.009
-3.964,10.809,1.277,5.011
-3.945,11.03,1.308,5.013
-2.555,10.691,-0.179,5.1
-2.337,10.078,0.253,5.102
-2.545,10.209,-0.521,5.103
-2.418,10.313,-1.132,5.109
-1.957,9.242,-0.662,5.111
-0.869,8.286,1.369,5.2
-0.657,8.069,3.157,5.201
-0.012,7.818,4.012,5.203
0.371,7.494,3.429,5.21
0.709,7.131,4.105,5.3
0.405,7.357,3.941,5.302
0.375,7.798,3.872,5.303
0.738,8.399,3.786,5.305
1.645,8.539,3.703,5.306
3.161,8.561,2.392,5.4
2.973,8.173,2.275,5.401
2.561,8.061,2.792,5.403
2.469,8.669,3.314,5.405
2.157,9.657,2.931,5.406
3.941,10.006,0.894,5.5
3.849,10.045,-0.145,5.501
3.988,9.741,-1.641,5.503
3.625,9.627,-2.527,5.505
2.835,10.276,-1.576,5.511
-0.286,11.514,1.563,5.6
-1.165,12.235,1.947,5.601
-1.394,11.706,3.041,5.603
-1.055,11.345,3.349,5.605
-0.206,11.094,3.159,5.606
-0.225,11.075,3.255,5.7
-1.29,12.31,3.602,5.701
-2.084,12.716,4.043,5.703
-1.943,12.357,4.831,5.705
-1.878,12.022,4.984,5.72
-1.1,12.0,2.2,5.8
-1.1,12.1,2.3,5.801
-0.8,12.0,2.4,5.807
-0.4,11.4,2.3,5.808
-0.1,11.0,2.2,5.81
-0.22,10.853,0.722,5.9
-0.229,10.406,0.252,5.901
-0.14,9.924,0.389,5.903
-0.151,9.741,0.627,5.905
-0.328,9.625,0.698,5.906
-1.17,9.622,0.065,6.006
-1.357,9.474,0.122,6.007
-1.409,9.065,0.296,6.009
-1.33,8.778,0.335,6.011
-1.2,8.6,0.3,6.012
-2.924,7.792,-1.012,6.1
-2.435,7.555,-1.167,6.101
-2.196,7.535,-0.898,6.107
-1.839,8.02,-0.769,6.118
-1.737,9.288,-0.318,6.119
-2.082,10.606,-0.841,6.202
-2.324,11.192,-1.212,6.204
-2.239,12.12,-1.069,6.205
-2.643,12.486,-1.871,6.207
-2.843,12.286,-2.971,6.209
-2.594,11.102,-4.247,6.3
-1.161,9.38,-4.831,6.301
0.061,8.32,-4.769,6.303
0.206,8.202,-4.647,6.304
-0.292,8.969,-4.296,6.306
-0.761,8.992,-5.584,6.4
-1.463,9.145,-5.89,6.402
-1.371,8.357,-5.514,6.403
-1.182,7.822,-4.845,6.405
-0.843,7.914,-4.629,6.407
2.483,8.968,-2.902,6.5
3.155,8.981,-3.572,6.501
2.609,8.462,-3.143,6.511
1.674,7.806,-2.258,6.512
1.387,7.553,-1.879,6.514
1.463,7.973,-0.137,6.6
1.067,8.933,-0.133,6.601
0.847,9.529,-0.053,6.603
0.775,9.355,-0.325,6.604
0.737,9.027,-0.363,6.606
0.7,8.7,-0.4,6.699
0.855,8.951,-0.345,6.701
0.776,9.335,-0.424,6.707
0.908,9.722,-0.192,6.709
0.963,10.473,-0.137,6.711
0.056,10.483,0.98,6.799
0.108,9.969,0.926,6.801
-0.323,9.967,1.081,6.802
-1.258,10.494,1.645,6.804
-1.171,11.453,2.953,6.899
-0.81,13.249,2.449,6.901
-0.463,13.514,2.014,6.915
0.275,12.327,1.627,6.916
0.72,11.902,1.402,6.918
3.222,11.378,-0.416,6.999
3.288,10.812,-0.182,7.014
2.455,10.445,0.451,7.016
1.255,11.445,1.251,7.018
0.939,13.461,1.608,7.024
-0.15,14.695,-0.154,7.103
-0.587,14.341,-0.519,7.105
-0.869,13.328,-0.679,7.106
-0.779,12.345,-0.491,7.115
-0.188,11.851,-0.912,7.116
-1.243,11.674,-2.36,7.175
-1.472,11.487,-2.13,7.178
-1.623,10.691,-1.536,7.179
-1.53,10.121,-1.081,7.181
-1.226,9.906,-1.258,7.183
-2.497,9.091,-2.114,7.273
-2.513,8.407,-1.767,7.288
-2.286,7.857,-1.371,7.29
-2.099,7.664,-0.938,7.292
-1.508,7.34,-1.844,7.375
-1.388,7.24,-1.684,7.376
-1.4,7.1,-1.7,7.385
-1.252,6.96,-1.836,7.386
-1.292,7.66,-1.056,7.388
-3.3,7.4,-1.5,7.474
-3.088,7.721,-2.314,7.476
-2.803,7.845,-4.047,7.478
-3.435,8.836,-5.159,7.479
-3.817,8.868,-5.48,7.481
-3.222,5.686,-7.933,7.599
-3.488,5.053,-7.8,7.601
-3.637,5.049,-7.967,7.602
-3.249,5.596,-8.567,7.604
-3.039,5.557,-10.133,7.606
-1.129,5.05,-11.188,7.7
-1.229,4.85,-10.588,7.71
-1.59,4.542,-10.401,7.712
-1.723,4.109,-10.034,7.714
-1.68,3.785,-9.202,7.715
-1.757,3.676,-8.568,7.717
-0.991,5.488,-7.76,7.799
-0.799,5.632,-8.029,7.806
-0.5,5.8,-7.8,7.808
-0.214,6.153,-7.296,7.81
-0.069,6.159,-6.966,7.811
1.133,5.833,-6.467,7.899
1.078,5.644,-5.956,7.905
0.97,5.559,-5.607,7.907
0.963,5.474,-5.659,7.908
1.167,5.567,-6.033,7.91
2.037,5.654,-6.025,8.004
2.056,5.376,-5.973,8.006
2.104,5.383,-6.344,8.008
1.908,5.77,-6.902,8.009
1.838,6.049,-7.311,8.019
1.324,7.38,-6.702,8.1
1.198,7.418,-6.908,8.102
1.261,7.149,-6.755,8.104
1.433,6.906,-6.469,8.107
1.692,6.673,-6.333,8.109
1.712,6.69,-6.051,8.199
1.52,6.816,-5.618,8.2
1.506,7.045,-5.276,8.202
1.576,7.62,-5.598,8.207
1.318,8.535,-6.627,8.209
1.073,9.039,-7.206,8.274
0.745,9.796,-8.22,8.276
0.357,11.086,-9.971,8.277
-0.094,11.545,-10.676,8.279
-0.392,10.627,-8.967,8.281
0.302,7.973,-9.706,8.397
-2.162,9.57,-8.914,8.399
-3.399,11.786,-8.103,8.4
-0.874,9.633,-8.379,8.475
0.676,8.44,-7.427,8.477
0.824,8.06,-7.273,8.479
0.305,7.632,-8.215,8.48
-0.354,7.461,-9.037,8.482
-0.856,7.588,-9.731,8.484
-3.226,5.278,-11.469,8.572
-3.383,4.96,-11.162,8.577
-3.106,4.626,-10.454,8.579
-2.56,4.095,-10.17,8.581
-2.084,2.555,-10.645,8.678
-1.578,2.525,-10.375,8.68
-1.229,2.647,-10.053,8.681
-1.167,2.967,-9.433,8.683
-0.984,3.155,-8.645,8.685
-1.392,3.305,-7.971,8.786
-1.493,3.167,-7.725,8.788
-1.444,2.66,-7.705,8.793
-1.51,2.519,-8.136,8.795
-1.529,2.132,-8.401,8.814
-2.333,-0.933,-8.933,8.882
-2.664,-1.164,-9.291,8.884
-2.901,-1.234,-9.725,8.885
-3.422,-1.456,-10.556,8.887
-3.748,-1.648,-11.612,8.888
-3.884,-2.006,-11.826,8.974
-3.433,-1.567,-10.667,8.975
-3.286,-1.966,-10.762,8.992
-3.059,-2.476,-11.105,8.994
-2.152,-2.419,-10.677,9.0
-1.489,-4.177,-10.062,9.074
-1.136,-4.36,-10.17,9.075
-1.064,-4.64,-9.83,9.077
-1.581,-4.998,-9.251,9.079
-1.857,-4.906,-8.647,9.08
-0.184,-4.795,-8.239,9.2
0.147,-4.633,-8.307,9.201
0.199,-4.324,-8.345,9.203
0.39,-4.238,-7.648,9.214
0.843,-5.029,-6.886,9.216
1.4,-4.94,-6.92,9.275
0.686,-4.777,-7.489,9.276
0.79,-4.185,-6.659,9.278
0.986,-3.717,-5.909,9.283
0.7,-3.28,-6.04,9.286
0.429,-3.386,-6.943,9.289
-0.335,-1.517,-8.701,9.397
-0.474,-1.322,-9.431,9.399
-0.692,-1.299,-9.794,9.402
-0.963,-1.308,-10.348,9.404
-0.695,-1.112,-10.771,9.5
-0.379,-1.21,-11.159,9.501
-0.328,-1.053,-11.621,9.503
-0.127,-0.916,-11.595,9.509
-0.063,-0.708,-11.648,9.511
0.096,-0.55,-11.403,9.514
1.57,1.695,-10.798,9.598
1.754,1.639,-10.42,9.617
1.808,1.978,-10.739,9.619
1.415,2.202,-12.101,9.621
1.161,2.363,-13.382,9.623
3.534,-0.281,-13.966,9.698
3.214,-0.098,-13.086,9.7
2.949,0.407,-12.151,9.702
2.642,0.406,-12.558,9.703
2.561,0.252,-12.839,9.705
2.351,0.293,-13.049,9.799
1.946,0.249,-13.654,9.8
1.596,-0.143,-13.904,9.802
1.146,-0.551,-14.154,9.804
0.877,-0.775,-14.023,9.805
-3.207,-4.467,-12.613,9.898
-2.685,-4.219,-11.984,9.9
-2.41,-3.562,-10.992,9.902
-2.032,-2.61,-9.822,9.903
-1.561,-2.124,-9.165,9.905
-2.595,-0.328,-8.774,9.998
-2.515,0.085,-8.079,10.0
-2.38,0.287,-7.495,10.001
-2.454,0.28,-7.338,10.003
-2.423,0.01,-7.081,10.008
-2.489,-1.028,-6.504,10.106
-2.168,-1.03,-5.977,10.107
-1.775,-1.011,-5.742,10.109
-1.468,-1.13,-5.777,10.111
-1.949,-0.765,-6.342,10.175
-1.992,-0.639,-7.276,10.177
-1.725,-0.382,-7.971,10.178
-1.377,-0.158,-8.46,10.18
-1.143,-2.044,-8.649,10.182
-1.825,-4.242,-9.311,10.282
-2.294,-4.398,-10.236,10.284
-2.211,-4.804,-10.328,10.286
-1.983,-5.594,-10.008,10.287
0.643,-5.734,-10.569,10.398
0.505,-5.644,-10.388,10.41
0.252,-5.762,-10.024,10.416
-0.338,-6.21,-9.919,10.419
-1.19,-6.448,-10.395,10.428
-1.625,-8.274,-9.866,10.499
-1.543,-8.23,-9.225,10.501
-0.958,-8.575,-8.511,10.503
-0.932,-8.496,-7.709,10.504
-0.949,-7.647,-7.032,10.509
-1.015,-7.345,-6.187,10.511
0.838,-4.048,-8.11,10.598
0.674,-2.643,-8.209,10.601
0.75,-2.062,-8.372,10.603
0.501,-1.776,-8.755,10.604
0.37,-1.662,-8.532,10.606
0.222,0.63,-8.562,10.699
-0.458,0.493,-8.655,10.7
-0.806,0.701,-8.892,10.703
-0.761,0.944,-9.251,10.705
-0.634,1.072,-9.622,10.714
-0.628,2.6,-9.296,10.798
-0.34,2.6,-9.38,10.8
0.112,2.4,-9.616,10.801
0.236,2.4,-9.548,10.804
0.292,2.3,-9.356,10.806
0.051,3.775,-8.802,10.897
0.072,3.729,-9.13,10.899
0.012,3.902,-9.616,10.901
-0.128,3.829,-10.53,10.902
-0.196,3.967,-11.439,10.904
0.52,3.548,-12.285,11.015
0.671,3.591,-12.847,11.017
1.132,3.496,-12.676,11.02
1.129,3.409,-11.953,11.022
0.708,3.499,-11.294,11.024
-0.24,2.5,-11.18,11.1
-0.628,2.8,-11.796,11.101
-1.212,2.9,-13.084,11.103
-2.176,3.3,-13.532,11.121
-2.792,3.3,-13.144,11.122
-2.247,3.235,-12.965,11.199
-2.118,2.788,-12.812,11.201
-1.739,2.163,-12.737,11.203
-1.48,1.569,-12.731,11.208
-1.325,1.861,-12.139,11.209
-3.325,-0.459,-11.231,11.278
-3.1,0.1,-11.1,11.279
-2.734,0.032,-11.059,11.281
-3.181,-0.547,-10.72,11.283
-3.389,-0.322,-9.722,11.284
-2.795,0.275,-9.097,11.376
-2.405,0.025,-8.603,11.379
-2.181,-0.444,-8.228,11.381
-3.597,-1.061,-6.936,11.477
-3.387,-0.983,-6.467,11.48
-3.378,-1.284,-6.186,11.482
-2.665,-0.967,-6.153,11.484
-2.28,-0.844,-5.962,11.494
-1.752,-0.017,-5.796,11.574
-1.235,-0.278,-5.73,11.575
-0.9,-0.5,-5.9,11.577
-0.965,-0.822,-6.67,11.579
-1.278,-1.926,-8.143,11.584
-0.745,-3.677,-8.785,11.676
-0.619,-1.204,-8.894,11.683
0.091,-1.157,-8.664,11.685
0.515,-1.974,-10.938,11.686
0.272,-2.162,-13.457,11.688
1.965,-1.997,-13.77,11.773
0.474,-2.173,-12.752,11.779
-0.04,-3.288,-11.88,11.781
0.873,-4.031,-12.154,11.782
0.942,-4.795,-12.117,11.784
-0.5,-5.1,-12.2,11.898
-0.805,-5.856,-11.612,11.9
-1.048,-5.902,-10.504,11.901
-1.062,-5.73,-9.661,11.911
-1.333,-5.713,-8.827,11.913
-0.87,-6.709,-7.526,12.003
-0.974,-6.721,-6.998,12.004
-1.138,-6.113,-6.317,12.006
-1.487,-5.56,-5.749,12.007
-1.83,-5.191,-6.074,12.009
-2.391,-5.272,-6.621,12.016
-1.703,-4.224,-7.53,12.098
-1.196,-3.834,-7.56,12.101
-0.871,-3.499,-7.707,12.106
-0.986,-3.62,-7.559,12.107
-1.112,-3.497,-7.421,12.109
0.28,-2.2,-8.04,12.198
0.257,-2.471,-7.914,12.199
0.009,-2.286,-7.797,12.203
-0.006,-2.143,-7.969,12.21
-0.05,-2.038,-8.228,12.212
0.123,-1.208,-8.731,12.273
0.092,-1.231,-8.823,12.282
-0.015,-1.062,-9.046,12.284
-0.062,-1.346,-9.285,12.292
-0.108,-1.731,-9.823,12.294
-0.107,-3.367,-9.913,12.396
-0.056,-3.705,-9.441,12.397
-0.056,-3.805,-8.941,12.399
-0.188,-3.59,-9.218,12.401
-0.225,-3.619,-9.764,12.499
-0.327,-3.367,-9.953,12.501
-0.465,-3.019,-9.944,12.503
-0.699,-2.876,-10.155,12.505
-0.971,-3.086,-10.657,12.506
-1.074,-3.057,-11.091,12.508
-1.023,-1.392,-11.769,12.598
-1.154,-1.315,-11.962,12.6
-0.962,-1.346,-11.585,12.602
-0.692,-1.469,-10.777,12.603
-0.654,-1.415,-10.262,12.605
-0.677,-1.508,-10.231,12.697
-0.615,-1.462,-10.046,12.699
-0.508,-1.131,-9.623,12.701
-0.546,-0.885,-9.238,12.702
-0.523,-0.592,-8.669,12.704
-0.702,-2.458,-7.955,12.798
-1.033,-2.547,-8.382,12.799
-1.253,-2.587,-8.882,12.801
-0.962,-2.278,-9.055,12.803
-0.205,-2.075,-8.864,12.804
-0.553,-2.687,-8.982,12.898
-1.207,-2.633,-9.118,12.899
-1.365,-3.195,-9.464,12.901
-1.26,-4.32,-10.2,12.903
-1.638,-4.922,-9.945,12.904
-1.775,-4.285,-9.036,12.998
-1.487,-4.093,-9.018,12.999
-1.302,-4.658,-9.255,13.001
-1.013,-4.407,-8.782,13.002
-0.364,-4.136,-8.709,13.012
-0.145,-4.155,-8.664,13.098
0.258,-3.738,-8.455,13.099
0.28,-3.54,-8.7,13.101
0.002,-3.942,-8.845,13.102
-0.031,-4.489,-9.127,13.104
1.005,-5.668,-8.695,13.173
1.003,-5.721,-8.417,13.174
1.026,-5.642,-8.474,13.181
1.168,-5.889,-8.232,13.182
0.912,-6.011,-8.328,13.184
0.719,-5.626,-8.401,13.276
0.834,-5.258,-8.546,13.278
0.925,-4.968,-8.635,13.279
0.782,-4.747,-8.738,13.403
0.827,-4.616,-8.713,13.404
0.733,-4.584,-8.707,13.406
0.661,-4.474,-8.759,13.408
0.756,-4.505,-8.764,13.409
0.661,-4.474,-8.759,13.499
0.588,-4.389,-8.672,13.501
0.612,-4.311,-8.728,13.502
0.661,-4.474,-8.759,13.504
0.661,-4.474,-8.759,13.506
0.568,-4.389,-9.032,13.507
0.591,-4.337,-8.949,13.603
0.613,-4.284,-8.867,13.605
0.707,-4.316,-8.873,13.606
0.662,-4.447,-8.898,13.608
0.729,-4.263,-8.791,13.609
0.707,-4.316,-8.873,13.698
0.729,-4.263,-8.791,13.699
0.707,-4.316,-8.873,13.701
0.685,-4.368,-8.955,13.703
0.641,-4.474,-9.119,13.704
0.662,-4.447,-8.898,13.798
0.706,-4.342,-8.734,13.799
0.779,-4.426,-8.821,13.801
0.851,-4.537,-8.769,13.811
0.827,-4.616,-8.713,13.812
0.805,-4.668,-8.795,13.898
0.827,-4.616,-8.713,13.899
0.944,-4.595,-8.636,13.904
0.994,-4.758,-8.666,13.906
0.995,-4.732,-8.805,13.908
1.017,-4.679,-8.723,13.998
0.923,-4.621,-8.857,14.003
0.968,-4.489,-8.832,14.004
0.967,-4.516,-8.693,14.006
0.967,-4.516,-8.693,14.008
0.851,-4.537,-8.769,14.098
0.873,-4.484,-8.687,14.099
0.778,-4.453,-8.682,14.101
0.705,-4.368,-8.595,14.103
0.683,-4.421,-8.677,14.104
0.705,-4.368,-8.595,14.197
0.728,-4.289,-8.652,14.198
0.706,-4.342,-8.734,14.208
0.634,-4.258,-8.646,14.21
0.679,-4.126,-8.621,14.211
0.773,-4.184,-8.487,14.298
0.723,-4.021,-8.457,14.3
0.723,-4.021,-8.457,14.303
0.862,-3.947,-8.298,14.305
0.885,-3.868,-8.355,14.307
0.796,-4.105,-8.544,14.397
1.085,-4.468,-8.755,14.399
0.945,-4.568,-8.775,14.4
0.562,-4.147,-8.698,14.404
0.451,-4.437,-8.969,14.405
0.69,-5.592,-8.541,14.497
0.52,-5.416,-8.518,14.499
0.459,-5.267,-8.363,14.501
0.565,-5.212,-8.439,14.506
0.639,-5.451,-8.245,14.508
0.4,-6.4,-7.2,14.597
0.443,-6.266,-7.211,14.607
0.529,-6.317,-7.494,14.619
0.49,-6.421,-7.982,14.621
-0.033,-7.053,-8.627,14.623
1.332,-8.916,-7.224,14.698
1.143,-8.68,-7.003,14.701
1.093,-8.187,-6.849,14.703
1.015,-7.914,-6.708,14.709
0.924,-7.815,-6.666,14.711
-1.272,-8.809,-5.268,14.772
-1.366,-8.778,-5.274,14.774
-1.447,-8.684,-5.153,14.776
-1.499,-8.534,-5.221,14.777
-1.398,-8.267,-5.442,14.779
-1.309,-8.097,-6.011,14.87
-1.292,-8.169,-6.768,14.872
-1.552,-8.349,-6.968,14.879
-1.376,-8.475,-7.084,14.972
-1.281,-8.506,-7.079,14.974
-1.035,-8.388,-7.005,14.984
-0.749,-8.517,-7.211,14.985
-0.558,-8.647,-7.642,14.987
0.491,-10.032,-5.672,15.072
0.645,-9.916,-6.036,15.074
1.076,-10.347,-6.127,15.079
1.921,-10.763,-5.763,15.081
1.94,-10.3,-7.42,15.082
2.568,-12.414,-9.066,15.175
1.899,-13.019,-8.268,15.178
1.744,-11.556,-6.222,15.18
2.209,-10.227,-5.891,15.183
2.672,-9.737,-5.395,15.184
3.437,-10.704,-3.661,15.273
2.873,-9.439,-3.808,15.275
4.125,-8.392,-4.578,15.277
4.4,-8.7,-2.5,15.278
4.631,-8.698,-2.42,15.28
3.467,-8.081,3.741,15.372
3.257,-5.763,3.532,15.382
3.864,-4.316,3.808,15.389
3.774,-3.134,4.617,15.391
4.309,-3.396,4.998,15.395
0.615,-1.913,6.721,15.48
0.629,-1.426,5.842,15.482
0.955,0.102,5.454,15.484
0.684,0.576,5.496,15.489
-0.14,1.385,5.567,15.491
-0.081,2.584,4.473,15.597
-0.462,1.468,6.146,15.598
-2.05,1.377,7.672,15.6
-2.284,3.743,6.705,15.602
-1.914,4.997,5.062,15.61
-0.491,5.352,3.326,15.699
-2.048,3.513,5.557,15.701
-3.778,4.73,8.065,15.702
-2.826,7.843,6.522,15.704
-2.409,7.848,4.974,15.706
-2.396,7.126,4.213,15.718
-2.416,5.753,7.353,15.797
-3.123,6.211,8.691,15.799
-2.659,7.563,7.703,15.804
-2.531,7.868,7.128,15.806
-2.319,7.563,7.083,15.807
-2.185,7.084,7.624,15.896
-3.593,5.142,9.062,15.898
-2.867,5.458,9.218,15.899
-3.711,4.368,8.868,15.901
-3.223,6.311,7.991,15.903
-1.42,6.524,7.532,16.003
-1.02,6.564,7.752,16.005
-1.0,4.52,10.36,16.006
-0.2,8.8,8.9,16.008
-0.3,6.78,10.04,16.01
-0.3,8.36,6.98,16.097
-0.34,6.128,6.504,16.098
-2.04,4.028,6.704,16.1
-3.96,3.972,7.296,16.111
-5.92,2.784,9.712,16.119
-3.241,4.496,13.008,16.197
-2.253,4.922,10.75,16.199
-1.84,6.233,8.751,16.2
-1.575,9.384,8.661,16.202
0.379,9.798,7.154,16.204
0.4,6.04,8.22,16.3
0.32,4.036,8.548,16.302
-1.78,1.796,9.228,16.303
-2.64,3.948,8.264,16.305
-1.3,5.28,8.04,16.307
0.8,6.96,7.78,16.397
0.04,6.132,8.176,16.399
-0.1,4.0,8.5,16.4
0.58,4.864,8.152,16.408
0.82,6.096,7.628,16.41
-0.098,6.026,7.946,16.497
0.328,5.905,8.325,16.499
1.523,5.389,8.109,16.521
2.597,5.011,7.731,16.522
3.691,2.332,7.492,16.524
3.711,0.211,8.156,16.598
3.293,1.393,8.763,16.603
2.63,2.73,10.348,16.605
1.096,3.596,6.881,16.606
2.3,-1.5,7.4,16.608
2.567,3.328,9.921,16.673
0.681,-0.034,9.771,16.674
1.672,7.923,5.401,16.68
-1.239,0.15,7.678,16.682
-1.181,5.734,7.129,16.684
-0.2,-1.52,10.86,16.775
2.067,5.673,8.713,16.776
1.433,7.147,9.027,16.778
-0.6,-3.46,7.78,16.897
5.356,14.124,3.038,16.899
-1.9,6.28,6.46,16.9
0.289,3.751,4.424,16.911
-0.067,1.687,8.307,16.918
2.031,4.532,7.872,16.999
1.92,5.6,7.44,17.001
2.222,5.126,7.186,17.003
1.003,5.689,6.969,17.005
0.381,5.363,6.483,17.006
0.306,4.779,6.539,17.008
-2.696,5.553,7.393,17.098
1.748,3.205,7.765,17.099
-0.266,7.921,8.741,17.101
3.197,13.211,6.931,17.103
-0.7,11.5,7.1,17.104
-2.249,5.432,9.412,17.198
-0.908,7.895,10.115,17.2
-1.817,5.789,11.229,17.201
-0.564,12.147,7.787,17.208
0.088,16.005,5.145,17.209
-2.974,9.379,6.579,17.298
-2.155,7.616,7.496,17.308
-1.395,7.416,7.316,17.309
-0.939,6.563,7.243,17.311
-0.932,5.005,8.505,17.313
-0.768,6.695,7.595,17.403
-1.259,6.663,7.503,17.405
-1.393,6.642,7.462,17.411
-2.747,5.058,8.058,17.413
-2.618,4.226,8.306,17.422
-2.2,3.34,8.38,17.472
-2.156,3.496,7.802,17.474
-2.522,3.602,9.049,17.476
-3.311,4.451,10.324,17.477
-2.1,6.64,8.48,17.479
-1.002,5.935,8.373,17.595
-0.219,5.066,7.871,17.597
1.561,4.75,9.378,17.598
3.176,3.753,10.054,17.6
1.604,5.023,9.315,17.677
0.34,4.038,9.358,17.688
3.46,4.262,9.042,17.69
1.111,4.368,9.145,17.691
1.781,5.087,9.025,17.698
2.074,6.042,8.794,17.7
0.284,2.215,9.73,17.771
2.009,2.798,10.489,17.773
2.764,3.352,9.388,17.774
1.482,3.849,9.167,17.781
0.6,4.7,9.0,17.877
0.35,3.578,8.427,17.88
1.265,3.608,8.843,17.886
0.686,2.025,8.739,17.888
2.038,4.158,9.26,17.978
1.028,2.119,10.545,17.98
-0.442,-4.994,8.474,17.983
-0.702,-1.468,8.917,17.984
2.755,-0.13,5.608,17.986
2.7,6.76,7.18,18.072
4.148,2.93,4.915,18.081
2.138,3.052,8.776,18.083
-0.938,-0.952,9.524,18.085
1.386,0.463,9.331,18.086
0.939,3.014,7.775,18.172
0.339,2.514,7.375,18.174
0.326,3.094,7.168,18.175
-0.743,3.565,7.008,18.177
-0.173,3.25,6.522,18.18
1.566,4.963,7.697,18.272
0.388,4.936,7.548,18.273
-1.481,4.407,8.787,18.275
-1.94,7.331,11.271,18.277
-0.495,10.777,11.572,18.278
-2.069,16.414,9.337,18.397
0.635,13.352,11.03,18.399
-1.875,12.948,10.65,18.401
0.332,5.924,7.935,18.407
0.937,2.771,10.726,18.408
2.11,4.305,9.179,18.498
3.219,7.79,8.562,18.5
1.813,4.533,7.473,18.507
0.965,3.048,8.77,18.51
-0.119,2.61,8.238,18.512
-0.995,2.148,7.49,18.514
-1.633,-1.833,7.233,18.597
1.225,-0.245,7.675,18.602
6.078,17.984,13.622,18.604
-2.455,0.551,5.855,18.605
0.0,5.5,9.1,18.607
1.69,5.802,9.21,18.698
2.747,3.471,9.553,18.7
3.041,4.912,9.259,18.702
2.039,3.892,8.361,18.704
1.349,4.49,8.051,18.706
0.295,1.761,9.47,18.797
1.824,1.455,9.472,18.798
0.538,1.992,9.304,18.8
0.281,1.684,8.858,18.812
0.857,-0.051,8.426,18.814
-0.421,-0.947,9.313,18.897
0.564,-2.991,7.977,18.898
1.334,3.123,8.806,18.9
4.089,4.892,11.498,18.901
3.489,-0.408,9.798,18.903
1.563,-1.861,9.344,19.01
3.757,1.43,11.492,19.012
3.708,3.196,12.01,19.016
2.687,-0.917,9.895,19.018
2.642,-3.074,10.529,19.019
2.853,-2.027,11.367,19.096
2.033,-0.767,11.267,19.098
2.049,-0.824,10.911,19.1
0.578,-2.289,8.722,19.106
0.127,-1.113,8.933,19.107
-1.079,-3.892,8.627,19.196
0.421,-4.112,9.587,19.198
0.763,-3.835,8.262,19.215
-0.347,-5.339,5.548,19.217
-0.011,-0.024,12.646,19.219
-1.3,-5.5,5.7,19.296
0.827,-3.718,9.927,19.298
1.373,-6.482,7.473,19.303
0.282,-6.055,5.682,19.305
2.709,-4.373,7.709,19.307
2.423,-5.832,7.43,19.372
1.719,-4.443,5.258,19.373
2.432,-3.404,4.209,19.375
3.142,-3.375,7.189,19.377
3.806,-3.483,5.008,19.378
3.586,-3.893,4.846,19.47
3.644,-4.574,5.583,19.472
2.267,-5.551,4.64,19.474
-1.093,-8.317,7.682,19.477
3.568,-4.413,13.559,19.596
4.432,-2.647,10.521,19.597
4.079,-1.388,6.913,19.607
3.8,-0.42,6.56,19.609
1.515,-3.952,7.012,19.698
-2.299,-8.243,6.347,19.7
-2.38,-8.569,8.249,19.702
-2.498,-7.187,9.995,19.703
-2.012,-6.579,9.93,19.708
-0.712,-5.479,11.33,19.71
-4.257,-8.768,7.741,19.712
-1.1,-11.991,8.804,19.796
0.1,-9.231,10.22,19.798
0.6,-7.318,7.414,19.8
1.8,-4.955,6.898,19.801
1.2,-4.988,4.772,19.803
1.651,-7.104,4.559,19.9
1.071,-8.086,4.843,19.902
0.878,-6.61,6.098,19.904
0.929,-5.314,5.857,19.905
0.857,-4.229,5.414,19.907
-0.98,-6.782,4.284,20.009
-1.663,-8.447,6.431,20.011
-3.418,-9.627,7.435,20.015
-2.553,-7.088,8.822,20.017
-1.652,-5.595,8.114,20.072
-2.394,-5.712,6.427,20.074
-2.069,-5.661,7.288,20.075
-2.748,-7.405,7.286,20.077
-2.956,-7.887,8.496,20.079
-3.122,-6.556,9.502,20.17
-2.491,-5.418,7.99,20.172
-1.463,-4.973,6.915,20.173
-0.81,-3.18,7.155,20.175
-2.331,-3.773,8.411,20.275
-2.696,-4.909,5.216,20.277
-5.531,-9.873,4.511,20.279
-2.144,-9.891,8.904,20.283
-0.355,-4.064,19.655,20.285
-0.521,-8.256,18.285,20.373
1.445,-5.509,9.207,20.385
2.436,-10.007,3.466,20.388
5.336,-9.007,11.566,20.401
3.989,-7.438,7.47,20.403
0.297,-7.042,5.687,20.472
-0.691,-6.922,6.334,20.474
-0.287,-7.132,4.952,20.476
0.54,-7.449,6.659,20.477
1.001,-7.653,6.304,20.485
1.059,-8.298,6.637,20.582
1.403,-7.358,5.813,20.584
0.932,-7.481,6.229,20.585
0.542,-6.255,5.668,20.594
1.606,-7.016,1.626,20.596
2.035,-6.539,6.842,20.672
0.814,-5.885,8.656,20.678
-0.671,-8.123,9.416,20.68
-2.189,-6.627,8.643,20.682
0.473,-7.583,3.492,20.684
0.465,-6.892,4.023,20.771
-0.648,-8.115,6.32,20.772
1.65,-9.197,7.096,20.774
1.128,-9.566,4.222,20.776
0.267,-7.804,4.639,20.777
-1.488,-7.588,4.982,20.871
-0.431,-7.831,3.98,20.876
0.071,-8.829,3.694,20.878
0.814,-8.786,5.196,20.88
2.41,-9.39,5.769,20.885
4.057,-9.043,4.198,20.996
4.198,-10.202,0.486,20.997
3.382,-9.818,2.676,21.0
-0.569,-8.069,-4.48,21.002
2.582,-10.018,4.276,21.004
6.852,-8.795,12.01,21.097
8.157,-5.886,6.829,21.1
6.051,-3.457,1.926,21.102
0.295,-5.61,-7.519,21.11
-0.19,-8.819,-2.078,21.12
1.838,-9.224,4.252,21.125
2.321,-8.838,4.944,21.196
2.817,-7.786,2.709,21.197
1.335,-6.61,0.701,21.199
-1.134,-7.229,-0.917,21.201
-1.72,-9.2,1.04,21.202
1.265,-9.053,3.871,21.297
2.584,-7.575,4.443,21.298
2.958,-5.763,4.229,21.3
1.743,-5.186,2.829,21.314
-0.989,-5.984,2.271,21.316
-2.033,-9.367,4.767,21.402
-0.711,-9.522,7.022,21.403
-0.437,-7.574,8.641,21.405
-0.356,-6.011,8.111,21.41
-1.026,-6.152,6.819,21.413
-2.4,-6.819,6.834,21.5
-4.8,-8.46,6.089,21.502
-3.6,-7.719,11.634,21.512
-4.8,-8.092,7.626,21.513
-1.3,-6.617,11.891,21.515
1.819,-6.163,10.83,21.596
0.852,-7.096,8.663,21.597
0.019,-9.463,9.33,21.602
-0.867,-10.233,9.733,21.604
-0.233,-8.667,10.867,21.606
-0.441,-7.681,9.815,21.695
-0.167,-6.733,8.633,21.697
-0.196,-5.593,7.426,21.699
-1.404,-4.807,6.574,21.7
-0.318,-5.355,6.818,21.8
-0.629,-5.527,7.369,21.803
-0.675,-5.564,6.915,21.806
-1.598,-6.055,5.858,21.807
-2.004,-7.091,6.884,21.809
-2.137,-7.809,7.754,21.872
-3.817,-7.357,7.931,21.874
-4.099,-6.653,8.204,21.885
-2.545,-6.387,8.719,21.887
-2.944,-7.04,8.124,21.889
-2.604,-8.689,11.483,22.003
-3.018,-9.004,15.127,22.004
0.003,-6.658,3.113,22.006
2.084,-8.01,3.435,22.007
3.889,-8.644,8.111,22.072
2.518,-8.689,5.042,22.074
0.533,-9.367,3.267,22.076
0.882,-7.611,5.158,22.077
0.107,-7.633,4.253,22.079
-0.144,-7.078,4.344,22.08
-0.949,-7.691,6.656,22.17
0.071,-9.331,4.756,22.174
1.207,-8.947,5.133,22.177
1.353,-9.973,5.367,22.179
2.096,-9.836,4.478,22.295
1.929,-10.169,6.244,22.3
1.296,-9.236,5.478,22.311
0.482,-8.542,5.311,22.314
1.202,-9.082,5.311,22.317
-0.092,-9.745,2.892,22.398
-0.541,-8.888,2.041,22.4
-1.22,-9.137,1.62,22.403
-1.29,-7.531,-0.71,22.405
-1.061,-7.225,3.461,22.408
-1.81,-8.069,5.71,22.409
-1.259,-9.312,1.359,22.496
0.043,-10.198,4.057,22.497
-0.239,-9.275,2.139,22.499
-1.006,-7.841,2.906,22.51
-1.494,-8.359,3.594,22.511
2.692,-8.057,0.543,22.595
2.328,-10.102,2.898,22.598
2.691,-10.564,2.336,22.606
1.849,-9.854,0.746,22.608
2.271,-10.105,1.795,22.609
1.276,-10.582,2.118,22.696
1.433,-9.833,1.167,22.697
0.641,-10.106,1.694,22.699
1.68,-10.369,2.531,22.7
3.161,-9.237,2.363,22.702
2.852,-11.045,-0.719,22.772
2.246,-11.462,0.111,22.774
1.967,-10.598,-0.164,22.776
2.145,-10.265,-1.843,22.777
2.612,-9.163,-2.707,22.779
0.291,-9.304,-3.556,22.894
0.1,-11.56,-1.08,22.896
0.745,-10.542,-4.298,22.898
1.091,-10.004,-1.156,22.899
-0.402,-10.628,-2.945,22.997
-0.045,-6.981,-5.838,22.999
-0.681,-6.051,-6.798,23.004
-0.936,-4.67,-10.46,23.006
-2.23,0.313,-13.726,23.008
1.532,-5.985,-2.73,23.02
0.996,-11.233,1.249,23.107
2.014,-9.333,-1.722,23.109
1.845,-6.467,-7.214,23.115
2.92,-7.733,-7.245,23.116
3.269,-4.067,-6.908,23.118
2.16,-6.453,-3.819,23.175
2.166,-8.045,-3.102,23.177
2.109,-5.321,-6.172,23.178
1.564,-9.081,-4.408,23.18
-0.626,-4.902,-7.479,23.182
1.706,-7.8,-5.324,23.269
2.102,-7.233,-5.075,23.271
2.896,-7.833,-4.651,23.273
4.211,-9.719,-3.592,23.37
4.09,-8.858,-4.466,23.373
1.511,-9.119,-5.992,23.375
-0.686,-12.325,-6.423,23.377
-0.774,-11.121,-7.672,23.378
1.715,-9.55,-6.563,23.471
2.396,-8.977,-5.579,23.479
0.584,-8.195,-7.057,23.481
1.114,-11.338,-6.203,23.483
-0.965,-12.278,-6.127,23.484
0.626,-9.82,-7.725,23.586
0.187,-9.018,-5.977,23.588
1.099,-7.944,-5.12,23.589
0.272,-7.468,-7.914,23.591
-0.032,-7.189,-8.314,23.597
0.531,-5.346,-8.772,23.671
0.766,-5.023,-7.386,23.672
1.565,-5.48,-5.538,23.674
0.615,-4.152,-8.112,23.676
-1.232,-3.41,-8.781,23.683
1.486,-5.429,-5.543,23.797
0.504,-1.263,-10.116,23.799
-2.363,-11.069,-6.347,23.8
-2.935,-10.912,-5.261,23.802
-2.392,-7.627,-6.833,23.812
0.4,-9.053,-5.343,23.897
0.1,-7.68,-3.431,23.899
0.7,-5.064,-3.494,23.901
0.2,-3.673,-3.99,23.902
0.9,-5.811,-5.651,23.907
-2.2,-6.488,-10.572,23.909
-2.6,-8.965,-9.171,23.995
-2.8,-10.11,-3.873,23.997
-2.6,-9.361,-3.062,23.999
-2.9,-8.169,-4.68,24.0
-4.8,-9.814,-7.782,24.002
-3.671,-13.157,-10.514,24.097
-4.943,-11.914,-5.929,24.098
-2.448,-6.765,-5.045,24.1
0.733,-3.797,-8.101,24.102
0.122,-5.698,-10.734,24.104
5.407,-7.147,-9.025,24.194
0.836,-6.534,-8.526,24.196
-0.089,-4.97,-6.738,24.205
-0.265,-5.878,-7.673,24.207
1.326,-6.52,-7.541,24.209
0.716,-5.705,-8.357,24.295
1.152,-5.94,-8.083,24.296
1.296,-5.677,-8.087,24.298
0.304,-4.723,-8.613,24.3
1.876,-5.792,-5.165,24.303
2.498,-3.689,-5.092,24.395
1.142,-0.749,-4.166,24.397
3.338,-0.926,-4.651,24.398
2.296,-2.677,-5.985,24.4
2.087,0.679,-10.347,24.402
2.264,0.515,-12.557,24.495
3.728,-1.07,-8.913,24.497
1.645,1.728,-7.781,24.498
2.687,-0.921,-5.147,24.5
1.745,-4.672,-4.781,24.502
1.136,-7.364,-4.091,24.595
-0.975,-4.855,-6.224,24.606
-2.351,-5.791,-8.453,24.608
-0.913,-11.873,-8.338,24.61
-2.095,-12.655,-8.384,24.611
-2.771,-12.357,-8.414,24.695
-2.124,-12.982,-8.273,24.697
-3.422,-9.602,-6.766,24.704
-3.345,-6.295,-7.835,24.706
-1.486,-26.129,-12.457,24.708
0.36,-10.0,-3.02,24.8
-1.942,0.018,-9.225,24.802
3.387,-6.673,-8.938,24.803
3.111,-9.009,-8.867,24.805
2.207,-5.073,-10.178,24.807
0.007,-5.273,-8.278,24.895
-0.693,-5.073,-7.378,24.897
-1.693,-5.173,-7.378,24.898
-1.862,-5.582,-6.285,24.9
-0.847,-6.127,-6.342,24.906
-0.085,-4.891,-7.36,24.994
-0.085,-4.491,-7.96,24.996
-0.151,-5.094,-7.296,24.998
0.755,-5.128,-7.719,24.999
-0.319,-4.81,-8.638,25.095
0.428,-4.376,-8.245,25.096
0.831,-4.414,-8.537,25.098
1.39,-3.995,-7.821,25.099
1.904,-2.338,-7.292,25.104
1.735,0.847,-6.765,25.2
2.467,0.633,-8.033,25.201
1.986,1.937,-8.814,25.203
3.447,1.429,-7.153,25.205
5.053,-5.429,-5.647,25.206
3.077,-0.434,-3.394,25.295
2.917,3.975,-3.679,25.296
-0.023,3.066,-10.694,25.298
1.168,-3.498,-14.117,25.304
3.147,-8.579,-14.687,25.306
4.313,-10.986,-10.944,25.395
3.217,-9.239,-7.514,25.397
2.651,-6.845,-4.876,25.399
1.759,-4.351,-5.216,25.405
1.587,-4.214,-5.256,25.406
0.635,-4.152,-7.03,25.495
-0.593,-5.367,-7.987,25.5
-0.716,-6.238,-7.632,25.501
-0.455,-6.448,-7.21,25.503
-1.43,-6.105,-6.959,25.505
0.077,-6.364,-7.509,25.594
-1.285,-5.791,-8.96,25.596
-1.058,-5.449,-8.266,25.598
-1.028,-4.73,-6.887,25.599
-1.07,-4.381,-5.821,25.601
-1.483,-5.904,-4.152,25.694
-1.239,-6.565,-5.383,25.696
-2.804,-8.974,-9.787,25.698
-1.643,-12.039,-7.57,25.699
-6.126,-13.043,-6.422,25.709
-1.774,-12.157,-6.378,25.794
-4.635,-7.991,-10.596,25.797
-6.748,-10.313,-4.257,25.799
-2.291,-11.452,-10.126,25.801
-1.07,-21.783,-6.091,25.803
-1.375,-8.455,-3.424,25.894
-1.302,-3.182,-10.205,25.896
5.313,-4.327,-10.462,25.903
6.215,-7.945,-9.956,25.905
3.895,-6.745,-9.216,25.906
1.3,-5.673,-7.878,25.996
-0.6,-5.618,-7.794,25.998
-1.1,-5.396,-7.821,26.001
-1.7,-5.174,-7.848,26.003
-1.6,-5.563,-7.711,26.004
-1.7,-4.392,-8.462,26.094
-1.5,-3.692,-8.862,26.096
-0.9,-4.485,-8.423,26.102
-1.7,-3.123,-8.015,26.116
-2.2,-1.954,-8.069,26.119
-2.3,-2.754,-8.169,26.198
-2.9,-2.6,-7.8,26.2
-1.4,-5.308,-7.538,26.201
2.0,-2.885,-8.223,26.203
3.4,-1.838,-6.492,26.205
2.512,-4.418,-10.388,26.294
2.414,-5.937,-10.086,26.296
1.573,-2.525,-7.827,26.298
2.063,-3.127,-9.737,26.303
3.033,-2.833,-9.267,26.305
1.809,0.011,-7.302,26.396
4.556,-13.153,-10.39,26.398
2.35,-8.073,-10.078,26.4
1.654,0.055,-10.301,26.401
2.541,-4.583,-10.576,26.403
2.58,-0.402,-10.198,26.499
1.665,-2.224,-9.876,26.5
1.686,-2.631,-9.669,26.511
1.612,-3.159,-9.541,26.513
1.265,-2.724,-9.276,26.514
0.85,-0.178,-9.273,26.595
0.835,-0.492,-9.743,26.599
0.693,-0.413,-9.281,26.601
-0.248,-0.988,-8.864,26.603
0.524,-0.883,-9.641,26.605
0.909,-0.04,-9.885,26.694
0.957,-0.838,-9.709,26.696
0.611,-0.108,-9.202,26.697
0.683,-0.189,-9.647,26.701
1.198,-0.332,-9.583,26.801
1.632,-1.555,-10.189,26.803
1.289,-0.192,-9.998,26.804
1.811,-0.908,-9.402,26.806
1.487,-0.425,-10.081,26.808
1.683,1.937,-9.901,26.894
1.306,2.192,-10.252,26.896
1.502,2.712,-9.458,26.906
0.706,1.336,-10.173,26.919
0.933,0.915,-9.84,26.921
1.056,0.314,-9.213,26.994
1.081,1.325,-9.843,26.996
1.436,1.783,-9.777,26.997
0.995,1.72,-10.006,26.999
0.551,0.734,-10.018,27.001
0.946,0.498,-9.445,27.094
1.031,0.103,-9.283,27.096
1.237,-0.461,-9.656,27.097
0.776,-0.055,-10.149,27.099
0.419,1.075,-9.857,27.105
2.181,1.093,-9.781,27.194
2.593,1.337,-9.393,27.2
0.604,2.181,-9.004,27.202
2.178,0.311,-9.878,27.203
-1.363,2.315,-5.337,27.205
-0.349,3.57,-5.077,27.302
0.423,2.545,-9.885,27.312
1.749,2.23,-9.823,27.313
-0.132,3.794,-7.302,27.315
0.413,3.643,-7.619,27.317
-1.889,3.902,-7.566,27.394
-0.985,4.483,-7.172,27.399
-0.379,3.504,-6.232,27.402
0.202,1.64,-7.153,27.404
-1.062,3.928,-4.957,27.406
-0.451,4.755,-4.548,27.493
-0.144,5.196,-5.868,27.495
-0.287,5.181,-6.74,27.497
0.729,3.743,-8.386,27.498
1.298,3.12,-8.893,27.5
2.0,3.32,-8.26,27.595
2.1,3.7,-7.6,27.597
2.4,2.54,-7.22,27.598
2.1,-0.42,-6.44,27.6
-1.3,0.42,-5.56,27.603
-0.619,6.442,-4.206,27.698
-0.523,9.178,-2.557,27.7
-1.573,11.314,-2.402,27.701
-3.698,12.846,-2.679,27.703
-6.384,13.339,-3.925,27.705
-1.181,16.201,-2.077,27.794
-3.127,16.609,-1.191,27.796
-3.053,18.066,0.21,27.802
-2.644,19.256,1.778,27.804
-2.224,17.23,3.397,27.805
1.963,12.873,7.737,27.894
2.627,11.725,6.373,27.896
2.645,11.349,4.155,27.903
1.755,10.251,3.545,27.905
1.961,9.792,2.939,27.906
1.035,9.147,4.665,27.995
1.312,8.782,4.688,27.998
1.318,8.224,4.882,27.999
0.91,8.202,5.09,28.005
0.537,8.527,5.163,28.037
0.198,8.333,6.058,28.094
0.718,8.973,5.958,28.095
1.191,9.097,5.711,28.097
1.645,8.648,5.505,28.099
1.754,8.618,5.374,28.104
1.367,8.756,4.947,28.203
0.944,8.715,4.684,28.205
0.356,8.885,4.616,28.206
0.052,9.151,4.532,28.208
-0.347,9.384,4.453,28.21
-0.448,9.651,4.232,28.294
-0.767,9.944,4.053,28.295
-0.951,9.583,4.289,28.297
-0.837,9.221,4.163,28.299
-1.304,9.436,3.034,28.396
-0.911,9.108,3.202,28.398
-0.655,8.67,3.592,28.404
-0.479,8.353,3.813,28.405
-0.104,8.336,4.034,28.415
-0.04,8.626,3.857,28.494
0.523,8.985,4.196,28.496
0.519,9.221,4.13,28.498
1.432,8.945,4.911,28.503
2.2,10.1,4.6,28.504
2.627,10.942,2.582,28.595
2.64,10.7,5.52,28.596
2.569,10.168,5.408,28.598
3.276,10.347,2.227,28.6
2.967,9.842,4.202,28.601
3.093,11.219,6.181,28.694
4.311,11.822,6.078,28.696
3.952,11.67,2.13,28.697
4.163,12.393,3.607,28.699
5.111,11.922,4.778,28.705
1.217,13.273,-1.659,28.795
1.158,12.397,-4.687,28.797
0.816,11.194,-4.474,28.798
1.169,9.192,-4.837,28.813
1.745,8.642,-4.768,28.815
-0.36,6.7,-7.48,28.894
0.024,5.753,-7.933,28.896
1.333,4.658,-8.618,28.897
1.742,4.526,-8.326,28.899
1.505,3.616,-7.616,28.901
-1.067,1.933,-7.733,28.994
-0.749,1.651,-7.31,28.996
0.343,0.943,-7.231,28.998
0.716,-0.084,-7.157,28.999
0.994,-0.406,-6.541,29.001
0.51,-0.398,-6.21,29.099
0.745,-1.051,-6.345,29.1
0.096,-1.261,-7.496,29.105
-0.975,-0.955,-8.025,29.108
-0.978,-1.916,-8.422,29.115
0.577,-3.985,-7.7,29.18
0.631,-3.854,-7.3,29.226
0.838,-4.092,-7.1,29.238
0.938,-3.292,-7.1,29.247
0.654,-4.169,-7.2,29.249
3.003,-4.009,-7.9,29.31
2.145,-3.617,-7.3,29.313
2.392,-4.172,-7.2,29.315
1.642,-4.307,-7.1,29.32
3.227,-3.622,-8.0,29.396
3.283,-3.345,-8.4,29.397
2.784,-3.315,-8.3,29.399
2.671,-3.869,-8.5,29.401
3.504,-3.679,-8.5,29.402
2.95,-3.565,-8.3,29.404
3.42,-3.734,-8.2,29.494
3.274,-5.148,-8.7,29.496
3.138,-4.759,-8.3,29.498
3.084,-4.315,-8.1,29.499
3.139,-4.398,-8.2,29.501
2.889,-4.563,-8.4,29.594
2.972,-4.508,-8.4,29.604
3.028,-4.592,-8.2,29.605
2.722,-4.673,-8.1,29.607
2.946,-4.286,-8.0,29.609
2.667,-4.59,-7.8,29.697
2.695,-4.451,-7.9,29.699
2.807,-4.258,-8.0,29.701
2.64,-4.368,-8.0,29.702
2.807,-4.258,-8.0,29.704
2.972,-4.508,-7.8,29.77
3.166,-4.62,-8.0,29.772
3.138,-4.759,-8.0,29.774
2.889,-4.563,-7.8,29.777
3.143,-3.677,-6.4,29.779
