vertical_Accel_x,vertical_Accel_y,vertical_Accel_z,accel_time_list
1.7,6.894,-7.436,0.0
0.0,7.021,-7.146,0.002
-0.1,7.021,-7.146,0.004
0.3,7.035,-7.429,0.005
0.4,7.258,-7.63,0.102
-0.3,6.946,-7.079,0.103
-0.9,6.716,-6.737,0.105
0.3,6.798,-6.945,0.107
0.1,6.604,-7.309,0.108
0.4,6.872,-7.012,0.202
-0.3,6.568,-6.603,0.203
-0.1,6.642,-6.67,0.205
-0.1,6.582,-6.886,0.207
0.1,6.657,-6.953,0.213
-0.2,6.731,-7.02,0.327
0.0,6.791,-6.804,0.332
-0.1,6.716,-6.737,0.334
-0.2,6.561,-6.462,0.336
-0.3,6.314,-7.182,0.337
-0.2,6.01,-6.773,0.428
-0.3,5.416,-6.237,0.433
-0.1,4.971,-5.835,0.435
-0.6,4.808,-5.419,0.436
-1.4,4.868,-5.203,0.438
-2.0,5.143,-5.047,0.44
-1.771,5.657,-4.586,0.527
-2.184,5.347,-3.935,0.529
-2.341,4.533,-2.763,0.531
-2.09,4.792,-1.559,0.536
-2.596,7.237,-0.884,0.538
-1.004,8.889,-0.272,0.627
-1.672,8.885,-0.062,0.628
-1.796,8.211,-0.328,0.63
-1.796,8.211,-0.328,0.632
-2.023,9.432,0.07,0.633
0.46,10.649,2.113,0.727
-0.177,10.843,2.692,0.729
-0.77,10.325,2.957,0.731
-0.896,10.191,3.432,0.741
-1.421,10.702,3.374,0.742
1.25,11.099,3.971,0.806
0.761,11.478,4.23,0.808
0.104,11.892,4.467,0.809
-0.456,12.313,4.879,0.811
-0.822,12.745,5.64,0.813
1.709,10.443,9.338,0.925
1.385,10.191,9.54,0.926
1.357,10.06,9.826,0.928
1.878,8.16,10.648,1.058
2.107,7.713,10.251,1.06
2.307,7.613,10.051,1.062
2.376,7.685,9.734,1.063
2.252,7.481,9.061,1.065
1.874,7.009,8.62,1.067
1.718,6.59,8.523,1.124
1.534,6.392,8.438,1.132
1.439,6.13,8.074,1.133
1.448,5.919,7.839,1.149
1.443,5.88,7.703,1.151
1.431,5.929,7.616,1.152
2.984,3.265,8.653,1.226
2.894,3.324,8.745,1.232
2.804,3.384,8.837,1.233
2.549,4.986,8.303,1.328
2.548,4.91,8.238,1.33
2.42,4.8,8.06,1.331
2.48,4.6,8.14,1.333
2.859,4.624,8.415,1.335
3.244,5.005,8.579,1.341
1.652,5.987,8.757,1.427
1.509,6.548,8.826,1.433
1.343,7.539,8.83,1.435
0.891,8.152,8.274,1.437
0.748,8.413,7.743,1.438
0.743,9.339,8.03,1.527
0.478,10.43,9.035,1.528
0.135,10.491,9.704,1.538
-0.052,9.713,9.843,1.539
-0.061,8.865,9.617,1.546
-0.189,7.055,10.585,1.626
-0.112,6.949,10.146,1.628
-0.14,6.262,9.533,1.63
0.027,5.892,8.945,1.631
0.184,5.663,8.64,1.633
0.481,5.576,8.235,1.726
0.474,5.503,8.024,1.728
0.427,5.492,7.745,1.734
-0.21,6.331,6.635,1.736
-0.127,6.28,6.41,1.737
0.245,5.671,6.945,1.801
0.342,5.919,7.042,1.803
0.171,5.609,6.971,1.805
0.064,5.287,6.664,1.806
0.164,5.287,6.564,1.808
0.186,3.557,7.65,1.924
0.055,3.57,7.598,1.935
0.16,3.407,7.487,1.937
0.306,3.004,7.407,1.938
0.482,3.088,7.179,2.047
0.44,2.793,7.213,2.049
0.723,2.549,7.21,2.05
0.818,2.412,7.321,2.052
0.989,2.859,7.004,2.054
0.884,3.023,7.115,2.055
0.665,2.644,7.376,2.133
0.822,2.781,7.592,2.135
1.1,2.9,7.5,2.137
1.278,2.819,7.608,2.138
1.007,2.871,7.725,2.14
1.289,1.545,8.404,2.226
1.54,1.67,8.864,2.228
1.462,1.781,9.355,2.23
1.468,1.734,9.713,2.231
1.394,1.647,9.843,2.233
1.387,3.016,10.133,2.326
1.561,3.374,10.559,2.331
1.521,3.774,10.779,2.333
1.527,4.016,11.113,2.335
1.366,4.142,11.354,2.336
3.238,1.77,11.914,2.426
3.039,1.856,12.417,2.431
2.868,1.649,12.504,2.433
2.683,1.531,12.55,2.435
2.483,1.545,12.648,2.436
2.383,1.531,12.65,2.501
2.375,1.653,12.924,2.503
2.441,1.929,13.022,2.505
2.401,2.086,12.403,2.509
2.202,1.873,11.506,2.51
1.744,3.489,10.589,2.629
1.43,3.493,10.559,2.631
1.352,3.437,10.704,2.633
1.344,3.489,10.789,2.729
1.133,3.967,11.067,2.739
0.952,3.737,10.604,2.74
0.959,3.485,9.819,2.742
0.974,3.381,9.648,2.744
0.867,3.333,9.433,2.751
-1.008,4.575,8.378,2.827
-1.057,4.19,7.869,2.828
-0.925,3.892,7.355,2.833
-0.908,3.375,6.978,2.835
-0.649,2.816,6.59,2.836
-0.439,2.373,6.492,2.838
0.629,2.691,6.329,2.925
0.974,2.462,6.774,2.927
1.021,2.551,7.121,2.934
0.822,2.868,6.922,2.935
0.796,2.93,6.996,3.037
0.631,3.226,7.231,3.039
0.64,3.584,7.34,3.041
0.675,3.879,7.375,3.043
0.672,4.127,7.572,3.052
0.539,5.084,7.108,3.133
0.657,5.329,7.186,3.134
0.943,5.771,7.414,3.136
0.722,6.333,7.784,3.137
0.384,6.649,8.076,3.139
0.286,6.943,8.329,3.201
0.498,7.506,8.547,3.203
0.396,8.412,9.194,3.204
0.102,9.194,9.753,3.206
-0.635,9.704,10.298,3.212
-0.753,9.559,10.42,3.324
0.809,9.048,10.226,3.326
1.513,8.522,9.739,3.327
2.043,7.939,8.63,3.329
1.9,7.0,8.0,3.433
1.948,6.213,7.543,3.434
2.03,6.417,7.791,3.436
2.222,6.67,8.165,3.438
2.035,6.891,8.004,3.447
1.843,6.639,7.63,3.449
0.622,4.698,8.91,3.526
0.72,4.716,8.918,3.532
1.08,4.584,8.582,3.533
0.976,4.22,8.198,3.535
0.878,3.702,8.09,3.536
1.079,2.326,8.421,3.6
1.08,2.3,8.56,3.602
0.488,2.189,8.472,3.603
0.314,1.858,7.906,3.605
0.358,1.753,7.742,3.61
0.175,1.932,8.065,3.729
0.132,2.011,8.368,3.73
0.083,1.821,8.477,3.732
0.501,1.574,8.139,3.734
0.834,0.917,8.106,3.827
0.757,1.079,8.017,3.833
0.77,1.285,7.932,3.835
0.723,1.362,8.111,3.849
0.879,1.489,8.209,3.852
1.034,1.617,8.306,3.863
0.94,2.8,8.08,3.926
0.92,3.2,7.94,3.927
0.924,3.495,7.996,3.929
0.928,3.789,8.052,3.933
1.073,3.984,8.087,3.935
0.653,5.247,7.771,4.025
0.569,5.198,7.914,4.027
0.406,5.094,8.341,4.033
0.245,5.222,8.849,4.034
0.135,5.465,9.147,4.036
1.022,7.67,8.265,4.099
0.617,8.196,8.652,4.1
0.378,9.13,9.535,4.102
0.287,9.978,10.561,4.201
0.365,9.909,10.996,4.202
0.617,9.396,11.052,4.204
0.965,8.709,10.696,4.222
1.135,7.591,9.704,4.224
0.936,7.367,7.453,4.301
0.286,7.573,7.199,4.302
-0.308,8.599,7.742,4.304
-0.216,8.698,7.785,4.305
-0.173,8.178,7.488,4.307
-0.552,7.013,8.443,4.401
-0.396,6.274,8.113,4.402
-0.413,5.878,7.961,4.404
-0.513,5.478,7.961,4.408
-0.557,5.239,7.93,4.41
-0.6,5.0,7.9,4.501
-0.643,4.561,7.47,4.503
-0.726,4.357,7.222,4.504
-0.739,4.335,7.083,4.51
-1.094,5.076,6.314,4.512
-0.971,4.214,6.743,4.6
-0.947,4.041,6.48,4.602
-0.898,3.994,6.553,4.621
-0.957,3.971,6.714,4.623
-0.884,3.851,6.724,4.624
-0.678,3.733,6.784,4.7
-0.678,3.833,6.984,4.702
-0.569,3.908,7.096,4.704
-0.461,3.884,7.008,4.711
-0.437,3.91,7.145,4.719
0.68,4.744,6.76,4.83
0.979,4.834,6.71,4.832
1.168,5.043,6.816,4.834
1.333,5.167,7.033,4.835
1.449,5.495,7.125,4.837
1.578,6.618,6.509,4.929
1.911,6.911,6.456,4.934
1.967,7.307,6.353,4.936
1.711,7.651,6.276,4.938
1.689,8.029,5.964,4.939
1.667,8.627,6.113,4.941
2.416,10.556,5.785,5.071
2.642,12.082,6.627,5.073
3.079,12.179,6.726,5.075
3.584,11.044,6.415,5.081
4.111,10.171,5.957,5.082
3.318,9.588,6.359,5.134
3.28,8.744,6.017,5.136
2.762,7.657,5.658,5.138
2.119,6.777,5.267,5.14
1.61,6.683,5.088,5.143
1.434,7.396,5.103,5.226
1.539,8.633,5.55,5.228
1.673,9.419,5.761,5.229
1.626,9.992,5.931,5.231
1.548,9.927,6.13,5.233
1.058,8.449,6.834,5.326
1.306,7.566,6.423,5.327
0.966,7.204,6.364,5.329
0.723,6.864,6.291,5.331
0.523,6.764,6.191,5.34
0.336,7.085,6.143,5.4
0.157,7.26,5.926,5.409
0.081,7.313,5.525,5.41
-0.023,7.236,5.409,5.412
1.132,7.532,4.511,5.414
0.719,7.955,3.772,5.524
0.713,7.628,3.83,5.53
0.692,7.398,3.911,5.532
0.657,7.264,4.015,5.534
0.642,7.36,4.038,5.628
0.636,7.634,4.196,5.629
0.853,7.813,4.021,5.631
0.928,7.932,4.008,5.633
1.279,7.97,4.081,5.634
1.591,8.023,4.064,5.636
1.768,8.852,1.713,5.702
1.827,9.157,1.656,5.704
1.701,9.418,1.346,5.709
1.575,9.68,1.037,5.72
1.486,10.162,0.899,5.722
1.592,10.872,0.776,5.799
1.86,11.824,0.889,5.804
1.851,12.959,1.173,5.805
2.849,13.049,0.19,5.901
3.4,13.0,0.4,5.902
3.806,13.406,0.859,5.904
3.71,13.41,1.398,5.906
3.239,12.439,1.692,5.907
2.337,11.437,1.873,6.026
1.767,10.467,1.667,6.027
1.802,9.602,1.42,6.029
2.047,10.047,1.071,6.035
2.331,10.531,0.914,6.037
2.263,11.263,-1.185,6.141
1.741,11.541,-1.196,6.144
1.763,10.763,-0.985,6.146
1.489,10.389,-1.056,6.148
1.281,10.181,-0.993,6.158
1.081,9.881,-0.893,6.159
1.067,9.567,-0.867,6.161
-1.031,9.211,-0.884,6.231
-1.022,8.722,-0.989,6.233
-1.031,8.311,-0.884,6.235
-1.004,7.944,-0.698,6.243
-0.847,7.767,-0.427,6.245
1.14,7.594,-0.779,6.325
1.187,7.591,-0.538,6.326
1.106,7.604,-0.481,6.328
1.106,7.604,-0.481,6.33
0.29,7.425,-0.824,6.425
0.29,7.425,-0.824,6.431
0.317,7.594,-0.968,6.435
0.404,7.809,-1.046,6.438
0.49,8.025,-1.124,6.44
1.294,8.296,-0.719,6.525
1.268,8.479,-0.796,6.527
1.36,8.506,-1.021,6.537
1.589,8.56,-1.232,6.547
1.747,8.898,-1.26,6.548
1.274,8.962,-2.815,6.606
1.379,9.168,-2.896,6.608
1.496,9.594,-3.019,6.609
1.589,10.134,-3.498,6.611
1.423,10.885,-4.145,6.613
1.336,11.704,-4.887,6.723
1.157,12.236,-5.491,6.725
1.198,12.247,-5.66,6.726
2.717,12.029,-6.734,6.74
2.995,12.581,-7.324,6.801
3.468,12.69,-7.202,6.803
4.017,11.729,-6.334,6.805
3.938,10.552,-5.71,6.808
3.542,9.448,-5.15,6.81
2.52,9.36,-3.5,6.815
1.602,8.988,-4.675,6.9
1.364,9.816,-5.367,6.91
1.264,10.016,-5.267,6.911
0.918,9.689,-4.96,6.923
1.78,9.54,-3.7,7.022
1.489,9.167,-3.509,7.024
1.407,8.922,-3.327,7.025
1.431,8.893,-3.191,7.027
1.465,8.696,-2.945,7.028
0.864,8.755,-2.245,7.1
0.657,8.537,-1.929,7.101
0.492,7.923,-1.51,7.109
0.534,7.526,-1.407,7.111
0.56,7.216,-1.351,7.114
0.984,7.072,-0.207,7.209
0.838,6.817,-0.271,7.211
0.896,6.693,-0.377,7.213
1.053,6.792,-0.502,7.214
1.256,6.922,-0.544,7.216
1.238,7.017,-0.571,7.3
1.181,7.141,-0.465,7.309
1.036,7.364,-0.709,7.311
1.351,7.938,-0.74,7.313
1.567,8.667,-0.533,7.314
1.74,8.771,-1.032,7.399
1.666,8.99,-0.953,7.401
1.579,8.988,-0.903,7.402
1.394,9.239,-1.015,7.404
0.755,9.692,0.37,7.502
0.732,10.189,0.255,7.504
0.651,10.358,0.134,7.507
0.492,10.632,0.128,7.509
0.162,11.06,0.042,7.511
1.8,11.5,0.2,7.604
1.71,12.11,0.198,7.606
1.771,13.071,0.406,7.608
2.184,14.084,0.843,7.609
2.61,14.51,1.398,7.611
2.943,14.643,2.031,7.7
2.976,13.976,2.265,7.712
3.045,12.445,2.251,7.722
2.888,11.388,2.082,7.724
2.916,10.916,1.757,7.726
2.3,11.269,-0.254,7.825
2.1,11.562,-0.592,7.826
1.7,11.115,-0.623,7.828
1.4,10.854,-0.731,7.83
1.3,10.462,-0.892,7.833
1.6,10.277,-0.815,7.926
1.5,10.392,-0.538,7.928
1.6,10.023,-0.385,7.929
1.4,9.892,-0.438,7.931
1.2,9.892,-0.438,7.933
0.7,9.723,-0.585,7.936
-0.248,9.139,-1.761,8.02
-0.404,8.962,-1.605,8.026
-0.404,8.962,-1.605,8.027
-0.283,9.013,-1.554,8.029
-0.352,9.061,-1.439,8.041
0.826,8.717,-1.123,8.123
0.909,8.472,-1.474,8.131
0.787,8.891,-1.738,8.133
0.743,8.762,-1.772,8.138
-0.406,8.134,-2.07,8.226
-0.396,7.809,-1.546,8.228
-0.081,7.698,-0.991,8.235
0.204,7.709,-0.646,8.237
0.534,7.835,-0.574,8.239
0.537,8.092,-0.759,8.24
0.558,8.294,-1.072,8.299
0.536,8.639,-1.297,8.301
0.464,9.161,-1.603,8.303
0.383,9.459,-1.894,8.304
0.407,9.918,-2.392,8.306
1.687,10.691,-2.438,8.423
1.5,11.7,-3.1,8.425
0.864,12.643,-3.509,8.426
0.745,12.93,-3.566,8.447
2.768,11.761,-4.334,8.526
3.591,11.262,-4.046,8.528
4.416,11.134,-3.708,8.53
4.872,11.245,-3.536,8.531
4.945,11.66,-3.822,8.533
5.02,11.988,-4.06,8.535
4.504,12.649,-2.871,8.602
3.773,11.778,-3.088,8.605
3.222,10.46,-2.848,8.608
3.056,9.568,-2.21,8.61
3.41,9.124,-2.128,8.611
1.602,9.775,-1.314,8.698
1.486,9.773,-1.099,8.7
1.012,9.452,-0.987,8.701
0.534,9.092,-0.738,8.703
1.4,9.2,0.5,8.8
1.3,9.331,0.554,8.802
1.3,8.977,0.485,8.803
1.3,8.9,0.3,8.813
1.3,8.877,-0.015,8.824
-0.145,8.981,-0.372,8.924
-0.279,9.017,-0.475,8.926
-0.436,9.143,-0.615,8.928
-0.496,9.285,-0.777,8.929
-0.564,9.557,-0.885,8.931
1.289,9.389,-1.356,9.026
1.174,9.174,-1.33,9.027
1.096,8.996,-1.219,9.029
1.074,8.774,-1.23,9.03
1.181,8.581,-1.193,9.032
1.263,8.563,-0.985,9.034
1.127,8.873,0.118,9.125
1.22,8.835,0.684,9.133
1.278,8.711,0.578,9.134
1.242,8.524,0.306,9.136
1.572,8.151,0.263,9.138
2.147,7.67,-2.389,9.224
2.149,7.323,-2.53,9.241
2.228,7.091,-2.526,9.243
2.113,7.219,-2.843,9.246
2.53,7.745,-3.066,9.248
3.031,7.508,-4.777,9.325
3.047,8.087,-4.897,9.333
3.044,8.911,-4.753,9.335
2.956,10.089,-5.247,9.336
2.893,11.148,-6.312,9.338
2.995,11.237,-9.342,9.399
3.247,12.188,-10.161,9.4
3.558,12.095,-9.637,9.402
3.558,10.835,-8.317,9.404
3.259,8.629,-8.422,9.513
3.05,7.807,-8.249,9.52
2.74,7.257,-9.381,9.522
2.154,6.661,-9.337,9.523
1.483,3.36,-10.617,9.602
1.301,3.514,-10.799,9.604
1.182,3.345,-10.218,9.616
1.289,3.344,-9.611,9.619
1.471,3.89,-9.329,9.621
1.569,4.562,-9.131,9.705
1.325,4.954,-8.775,9.71
0.938,5.037,-8.262,9.711
0.34,5.066,-7.86,9.713
-0.326,6.136,-6.608,9.717
-1.615,6.054,-6.462,9.801
-1.638,6.085,-6.554,9.803
-1.754,5.838,-6.715,9.805
-1.577,5.669,-6.708,9.806
-1.585,5.546,-6.638,9.808
-1.197,4.486,-7.309,9.898
-1.197,4.486,-7.309,9.902
-1.215,4.376,-7.221,9.905
-1.12,4.3,-6.84,9.907
-1.078,4.39,-6.832,9.909
-0.859,4.495,-6.656,10.0
-0.618,4.49,-6.612,10.01
-0.383,4.614,-6.751,10.011
-0.124,4.719,-6.795,10.013
-0.102,4.61,-6.928,10.015
0.089,3.489,-7.856,10.147
0.359,3.426,-8.037,10.149
0.793,3.359,-8.47,10.151
0.93,3.163,-8.419,10.153
1.096,2.83,-8.385,10.155
1.798,1.311,-8.862,10.226
2.231,1.144,-9.229,10.229
2.504,1.078,-9.476,10.231
2.409,0.956,-9.751,10.233
2.153,0.933,-9.907,10.236
2.04,0.8,-10.28,10.243
2.796,-2.284,-10.196,10.3
2.759,-2.725,-10.659,10.301
2.7,-3.0,-11.3,10.303
2.619,-3.279,-11.719,10.305
2.26,-3.554,-12.66,10.314
2.455,-1.316,-13.255,10.402
2.563,-1.361,-13.663,10.403
2.71,-1.331,-14.51,10.408
2.573,-1.092,-14.573,10.41
2.639,-0.625,-12.939,10.524
2.771,-0.306,-11.371,10.525
2.99,-0.069,-9.99,10.533
2.967,-0.033,-9.167,10.536
2.608,-0.245,-9.508,10.626
2.106,-0.659,-10.306,10.628
1.682,-0.724,-10.582,10.629
1.535,-0.853,-10.435,10.635
1.42,-0.863,-10.22,10.637
1.473,-0.992,-9.873,10.639
1.353,-1.029,-9.753,10.641
1.429,-1.094,-9.529,10.725
1.057,-0.902,-9.257,10.726
0.965,-0.847,-9.165,10.728
1.369,-0.92,-9.369,10.738
1.512,-1.518,-9.412,10.74
-0.229,0.444,-9.009,10.829
-0.442,0.811,-7.682,10.833
0.042,0.489,-7.018,10.836
0.916,0.422,-6.964,10.837
1.516,0.322,-7.164,10.839
1.137,1.604,-7.348,10.924
0.7,2.0,-7.2,10.925
0.456,2.056,-6.922,10.932
0.433,1.933,-7.133,10.933
0.57,1.837,-7.281,10.935
0.489,1.889,-7.256,10.999
0.541,1.974,-7.263,11.004
0.726,2.193,-7.504,11.006
0.941,2.374,-7.963,11.008
1.074,2.707,-8.596,11.01
0.428,2.078,-9.224,11.134
0.895,1.876,-9.248,11.136
1.12,1.66,-9.3,11.146
2.416,1.122,-9.464,11.225
2.249,1.056,-9.631,11.227
2.238,1.111,-9.942,11.228
2.233,1.233,-10.467,11.23
2.127,1.167,-11.053,11.235
2.002,1.189,-11.238,11.237
2.723,2.025,-10.823,11.324
2.629,2.01,-11.729,11.326
2.629,1.91,-13.129,11.327
2.477,2.175,-14.277,11.33
2.619,2.469,-14.219,11.331
2.743,2.708,-13.143,11.402
2.937,2.723,-12.137,11.404
2.902,2.528,-11.402,11.409
2.777,2.375,-11.177,11.411
2.658,2.206,-11.758,11.413
2.0,0.672,-12.696,11.498
1.8,-0.028,-12.596,11.5
1.6,-0.228,-11.496,11.51
1.6,-0.168,-10.576,11.512
1.779,-1.699,-10.036,11.605
1.897,-1.541,-9.891,11.607
1.702,-1.473,-9.806,11.609
1.298,-1.427,-9.594,11.611
0.936,-0.997,-9.008,11.613
0.937,-0.959,-8.737,11.699
0.98,-0.592,-8.68,11.7
0.875,-0.518,-8.375,11.702
0.883,-0.479,-8.283,11.704
0.9,-0.4,-8.1,11.705
0.118,-0.4,-7.871,11.825
0.294,-0.2,-7.776,11.826
0.355,-0.133,-7.82,11.828
0.416,-0.067,-7.863,11.83
0.388,-0.1,-7.953,11.831
0.347,-0.0,-8.088,11.926
0.455,-0.033,-8.22,11.927
0.502,-0.133,-8.308,11.937
0.637,-0.133,-8.349,11.944
0.745,-0.167,-8.48,11.946
0.914,-0.433,-8.655,11.947
0.931,-0.733,-9.325,12.024
0.745,-0.967,-10.18,12.026
0.865,-1.3,-10.759,12.061
0.727,-1.767,-11.21,12.063
-0.293,-3.571,-11.325,12.065
-0.598,-4.035,-11.436,12.138
-0.275,-4.283,-11.646,12.14
0.773,-4.682,-11.419,12.142
2.963,-4.579,-10.663,12.144
2.735,-4.477,-10.335,12.15
2.9,-3.8,-10.5,12.198
2.774,-3.981,-10.848,12.2
2.967,-4.533,-11.233,12.202
3.015,-4.296,-11.03,12.203
2.822,-4.344,-10.044,12.209
2.622,-4.144,-9.444,12.328
2.881,-3.93,-9.363,12.33
3.019,-2.97,-9.137,12.333
2.807,-2.748,-8.315,12.335
2.865,-0.789,-8.395,12.425
2.901,-0.486,-8.203,12.427
2.849,-0.12,-8.146,12.432
2.485,0.196,-8.056,12.434
2.406,0.382,-7.917,12.435
2.213,0.377,-8.238,12.437
2.047,2.465,-7.747,12.524
1.821,2.297,-7.721,12.526
1.735,2.395,-7.835,12.527
1.846,2.451,-8.046,12.529
1.93,2.324,-8.13,12.531
2.38,3.16,-7.6,12.625
2.408,3.256,-7.6,12.626
2.56,3.42,-7.6,12.632
2.684,3.488,-7.6,12.633
2.492,3.544,-7.6,12.644
2.712,3.584,-7.7,12.724
2.932,3.624,-8.2,12.725
3.124,3.568,-8.5,12.727
3.152,3.664,-8.7,12.729
3.152,3.664,-9.0,12.73
3.276,3.732,-9.4,12.823
3.276,3.732,-9.5,12.825
3.332,3.924,-9.6,12.826
3.292,4.144,-10.3,12.828
3.348,4.336,-11.0,12.899
3.376,4.432,-12.1,12.9
3.528,4.596,-13.1,12.902
3.5,4.5,-13.0,12.904
3.416,4.212,-11.8,12.905
2.924,0.965,-11.324,13.058
3.065,1.553,-10.665,13.06
3.096,1.673,-10.596,13.061
2.853,1.471,-11.153,13.063
2.28,0.863,-11.58,13.15
2.1,0.3,-11.1,13.152
1.865,0.253,-10.765,13.153
1.753,0.271,-10.453,13.155
1.508,0.555,-10.108,13.157
1.386,0.904,-9.786,13.158
1.271,-0.402,-9.771,13.233
1.213,-0.206,-9.413,13.235
1.13,-0.127,-9.33,13.241
1.051,-0.293,-9.251,13.243
0.993,-0.097,-8.893,13.3
0.849,-0.107,-8.549,13.301
0.944,0.138,-8.444,13.303
1.07,0.427,-8.47,13.305
1.026,0.589,-8.426,13.307
-0.017,-0.655,-8.397,13.314
0.117,-0.445,-8.203,13.396
0.369,-0.413,-7.948,13.398
0.548,-0.332,-8.055,13.4
0.773,-0.182,-8.219,13.412
2.486,-1.329,-7.957,13.5
2.682,-1.137,-7.888,13.502
2.955,-1.19,-7.937,13.505
3.169,-1.461,-8.08,13.507
3.471,-1.757,-8.114,13.508
2.961,-2.434,-8.161,13.598
3.059,-2.399,-8.359,13.6
3.367,-2.439,-8.567,13.602
3.898,-2.665,-8.698,13.609
4.18,-2.767,-8.98,13.611
4.365,-2.904,-9.065,13.698
4.537,-2.931,-9.237,13.7
4.809,-2.958,-9.309,13.706
5.007,-2.923,-9.407,13.708
4.995,-2.812,-9.495,13.71
6.212,-3.793,-8.693,13.805
6.249,-3.891,-8.891,13.807
6.13,-4.042,-9.142,13.809
6.205,-4.237,-9.537,13.818
6.263,-4.602,-9.902,13.82
5.265,-7.11,-9.269,13.899
5.055,-6.737,-9.19,13.901
4.967,-6.245,-8.965,13.906
4.602,-5.935,-8.496,13.908
4.276,-5.684,-8.149,13.909
3.583,-6.236,-7.757,14.039
3.211,-6.248,-7.51,14.041
2.85,-6.407,-7.172,14.043
2.842,-6.618,-6.629,14.048
2.917,-7.991,-4.114,14.131
2.561,-7.736,-3.895,14.133
2.157,-7.671,-3.714,14.139
1.979,-7.544,-3.605,14.141
2.003,-7.449,-3.586,14.143
2.068,-7.45,-3.662,14.144
2.084,-7.325,-3.781,14.146
1.565,-7.961,-1.583,14.223
1.652,-7.809,-1.826,14.233
1.735,-8.039,-1.817,14.235
1.87,-8.078,-1.835,14.236
2.087,-8.048,-1.943,14.238
2.278,-8.113,-2.039,14.323
2.274,-8.196,-1.887,14.325
2.265,-8.061,-1.683,14.326
2.313,-7.952,-1.557,14.328
2.504,-8.017,-1.652,14.329
2.022,-8.421,-1.041,14.428
2.415,-8.58,-1.061,14.43
2.516,-8.873,-1.246,14.432
2.552,-8.981,-1.163,14.434
3.3,-8.959,0.435,14.523
3.5,-9.271,0.382,14.525
3.667,-9.449,0.363,14.527
3.733,-9.227,0.443,14.535
3.867,-9.09,0.327,14.537
2.82,-9.4,1.24,14.599
3.028,-9.46,1.296,14.626
3.176,-9.32,1.432,14.627
3.072,-9.04,1.404,14.629
2.936,-8.82,1.252,14.631
3.399,-8.111,2.487,14.722
3.532,-8.248,2.215,14.729
3.689,-8.525,1.953,14.731
3.678,-8.738,2.019,14.734
4.333,-8.433,3.633,14.825
4.633,-9.433,3.833,14.827
5.067,-10.667,3.567,14.83
4.933,-11.333,4.033,14.836
4.967,-11.467,4.667,14.838
5.133,-11.633,5.033,14.839
3.351,-9.889,8.736,14.924
3.042,-8.678,8.351,14.931
2.987,-7.733,7.573,14.932
3.018,-7.522,7.069,14.934
2.936,-6.744,6.438,14.936
4.002,-3.649,7.967,15.027
4.841,-4.38,7.647,15.033
5.253,-4.373,7.651,15.034
4.767,-2.416,7.222,15.036
5.461,-1.369,6.62,15.038
5.568,0.08,7.676,15.125
5.964,0.04,8.348,15.137
6.04,0.5,7.78,15.143
6.112,1.52,7.084,15.145
6.392,2.22,6.544,15.146
4.25,5.223,6.414,15.224
4.323,4.904,6.364,15.225
4.546,4.507,6.027,15.227
4.364,5.087,5.461,15.228
3.572,6.073,4.606,15.23
2.658,6.618,3.211,15.298
3.122,5.922,3.189,15.299
1.762,6.942,2.689,15.301
1.967,8.067,5.067,15.303
-0.091,9.749,4.356,15.315
0.292,8.973,2.573,15.397
0.349,7.522,3.122,15.399
0.065,7.276,2.776,15.4
-0.196,8.914,2.814,15.402
-2.995,9.135,1.935,15.498
-2.592,8.257,0.657,15.5
-2.257,7.604,0.804,15.502
-2.775,7.877,0.477,15.503
-3.725,9.423,0.123,15.505
-2.992,9.555,2.608,15.625
-3.498,8.614,1.902,15.627
-3.375,7.978,1.725,15.63
-3.18,8.237,2.12,15.632
-3.388,8.082,3.212,15.633
-3.327,9.408,3.073,15.724
-3.255,11.516,2.845,15.727
-3.131,11.68,2.169,15.729
-2.663,11.561,1.737,15.731
-2.798,10.714,1.802,15.741
-2.578,10.051,1.622,15.742
0.556,9.044,2.478,15.827
0.748,9.419,2.074,15.829
0.685,9.948,1.693,15.831
0.53,10.504,1.415,15.832
0.126,11.241,1.063,15.834
-1.289,9.762,5.584,15.923
0.242,9.912,4.757,15.925
1.222,9.645,4.441,15.926
1.092,9.173,3.994,15.928
1.12,8.589,4.29,15.932
1.276,8.198,3.807,16.017
1.576,8.198,3.407,16.019
1.367,7.693,3.375,16.02
1.016,7.954,3.112,16.022
0.621,8.967,2.515,16.028
0.143,9.491,2.682,16.097
-0.513,10.081,2.965,16.099
-0.673,10.437,2.77,16.118
-0.81,10.416,2.742,16.209
-0.51,10.416,2.342,16.211
-0.362,9.899,2.354,16.212
-0.399,9.078,2.426,16.214
-0.197,8.635,2.477,16.216
0.127,8.082,3.827,16.298
0.482,8.245,3.282,16.3
0.282,8.245,3.482,16.301
-0.218,8.245,3.982,16.303
-0.436,7.891,4.064,16.308
-0.309,7.773,3.891,16.417
-0.336,8.091,3.364,16.418
-0.545,7.864,3.655,16.42
-0.755,7.936,4.145,16.422
-0.464,8.509,3.736,16.423
1.072,8.54,3.866,16.498
0.737,7.917,4.253,16.5
0.604,7.978,4.159,16.503
0.687,8.265,4.123,16.513
0.086,8.17,4.483,16.515
-0.052,8.058,4.39,16.618
0.586,8.27,4.483,16.62
-0.422,8.708,4.804,16.622
-0.684,7.619,4.997,16.63
-1.225,7.124,6.185,16.633
-0.277,8.587,4.735,16.729
-0.406,7.732,5.961,16.731
0.3,8.8,4.7,16.732
1.165,7.677,4.987,16.734
1.508,7.662,4.278,16.736
1.768,6.961,4.306,16.799
1.954,7.531,3.989,16.8
2.173,8.734,3.505,16.802
1.859,8.804,3.888,16.804
0.949,7.453,4.93,16.805
0.092,7.138,5.722,16.898
-1.288,6.841,6.838,16.9
-0.438,7.788,5.508,16.922
-0.92,5.902,6.344,16.931
-2.12,8.302,5.444,16.933
-3.157,11.285,6.191,17.026
-2.822,13.008,6.204,17.028
-1.154,11.969,5.411,17.03
-0.539,10.494,3.468,17.035
-1.439,8.394,4.968,17.036
-1.914,9.97,5.283,17.135
-1.788,10.841,6.638,17.137
-0.517,10.686,6.663,17.139
0.352,10.942,5.71,17.141
0.216,7.419,5.197,17.142
-0.317,8.186,5.063,17.144
-0.082,8.009,5.576,17.198
0.492,7.938,6.322,17.2
1.128,7.86,6.334,17.202
0.696,7.522,5.441,17.203
0.171,6.445,6.226,17.205
0.337,7.017,6.153,17.321
-0.038,7.488,5.708,17.323
-0.046,7.431,5.789,17.324
0.404,7.878,5.659,17.33
-0.11,7.148,6.442,17.424
-0.297,7.384,6.219,17.425
0.249,7.653,5.73,17.43
0.098,7.311,5.72,17.432
0.665,7.177,5.687,17.434
0.986,7.17,6.083,17.435
1.584,6.981,6.503,17.523
0.435,6.323,6.413,17.524
-0.794,7.568,5.439,17.531
1.125,8.376,5.715,17.533
0.541,6.896,6.212,17.534
1.277,8.713,4.865,17.622
0.639,7.006,5.932,17.624
0.52,7.298,5.756,17.625
0.932,6.939,5.794,17.627
1.274,7.329,5.245,17.637
1.145,6.874,5.771,17.721
1.754,7.431,5.489,17.723
1.837,7.717,5.453,17.725
1.947,6.963,5.551,17.726
2.29,6.548,5.542,17.822
2.196,6.722,5.041,17.824
0.813,6.535,5.377,17.825
-1.383,7.014,6.337,17.827
-3.068,9.439,6.994,17.829
-2.82,10.4,7.74,17.897
0.269,11.936,4.616,17.899
-0.385,9.318,4.698,17.9
-2.785,10.218,5.498,17.902
-3.12,12.16,4.9,17.911
-0.313,14.807,2.633,18.021
-0.065,12.19,3.719,18.028
-1.013,10.407,4.133,18.03
-1.329,8.557,4.914,18.032
-0.847,8.073,5.167,18.099
-0.38,7.84,4.7,18.101
-0.151,7.583,4.286,18.103
-0.678,6.396,5.552,18.105
-0.473,7.187,4.933,18.106
-0.956,5.592,6.405,18.108
0.795,6.518,5.938,18.196
0.771,6.564,6.104,18.197
0.844,7.355,5.595,18.199
0.765,7.582,5.642,18.201
1.156,8.545,4.405,18.322
1.091,8.164,4.864,18.323
1.015,7.718,5.398,18.325
0.551,7.464,5.644,18.326
0.533,7.491,5.271,18.328
0.851,7.164,5.044,18.424
1.282,7.227,5.027,18.43
1.38,6.8,5.34,18.431
0.975,6.018,5.678,18.433
0.522,5.827,5.847,18.443
0.278,6.273,6.053,18.445
0.336,6.845,6.145,18.522
0.544,6.555,6.195,18.523
0.458,6.373,6.293,18.526
1.105,6.882,5.762,18.527
1.309,7.436,5.336,18.529
-0.103,8.566,4.571,18.596
0.106,9.169,4.457,18.598
0.158,9.464,4.448,18.599
-0.209,8.897,4.814,18.601
-0.648,9.395,4.19,18.603
-1.564,9.768,4.395,18.721
-2.657,9.114,5.429,18.722
-3.11,11.019,6.338,18.724
-2.375,11.73,6.181,18.726
-1.845,10.23,5.619,18.823
-1.03,8.079,4.338,18.825
-1.488,6.015,3.99,18.826
-3.178,5.896,4.652,18.836
-5.169,9.177,7.214,18.838
-4.395,14.09,8.381,18.839
-4.014,12.733,6.322,18.923
-3.669,9.267,5.108,18.924
-2.835,6.8,5.741,18.926
-2.329,5.4,6.918,18.929
-1.488,5.9,7.253,18.934
0.951,6.858,7.168,19.022
1.057,7.69,6.841,19.024
1.028,7.859,6.864,19.03
0.928,6.959,7.264,19.031
0.806,6.332,7.373,19.033
0.463,5.721,7.514,19.122
-0.106,5.768,7.327,19.124
-0.024,5.729,7.284,19.132
-0.129,5.469,7.323,19.134
0.556,5.718,7.229,19.135
-0.676,6.5,7.006,19.197
-0.051,6.367,7.037,19.207
-0.186,6.267,7.078,19.208
0.186,5.633,6.522,19.21
0.565,5.9,7.441,19.211
0.535,6.6,6.859,19.295
0.894,5.2,6.824,19.3
1.61,5.333,6.827,19.302
1.614,5.767,6.678,19.397
2.057,6.833,6.839,19.399
1.933,7.133,6.433,19.4
1.759,6.8,6.265,19.402
2.063,6.733,6.616,19.404
0.366,6.677,5.914,19.502
0.513,7.035,6.383,19.504
0.642,8.676,7.306,19.505
0.142,10.276,7.306,19.507
-0.452,9.815,6.821,19.509
-0.509,7.891,6.327,19.597
-0.212,8.321,4.07,19.598
-0.417,6.638,5.507,19.623
-0.805,12.217,5.137,19.625
-1.431,13.946,6.572,19.627
-0.548,11.413,7.657,19.697
0.1,8.1,6.0,19.699
-0.022,5.87,5.735,19.7
0.087,4.722,5.761,19.702
-0.339,4.865,6.183,19.704
-0.687,5.978,5.239,19.797
-0.265,6.209,4.804,19.798
0.265,6.891,5.796,19.803
0.674,5.643,5.922,19.805
2.168,5.967,4.781,19.807
2.089,4.896,6.414,19.898
3.189,7.236,4.034,19.9
4.0,4.38,3.84,19.902
2.795,1.558,4.937,19.905
1.968,2.187,6.241,19.907
2.785,5.616,6.076,19.997
2.374,9.921,4.721,20.008
0.746,10.479,4.619,20.01
-1.928,10.495,7.475,20.011
-2.165,8.984,9.264,20.013
-0.166,6.911,9.664,20.123
-0.185,5.542,7.797,20.124
-0.057,6.095,6.898,20.126
0.802,7.863,7.885,20.139
0.688,8.553,7.681,20.14
1.472,6.669,7.068,20.225
-0.082,4.267,6.942,20.227
0.86,4.52,6.7,20.229
0.907,4.404,7.053,20.23
0.879,4.074,6.721,20.232
0.752,3.629,5.968,20.234
0.326,4.191,5.948,20.297
0.086,3.357,6.071,20.299
-0.786,2.343,8.129,20.305
-2.493,5.466,9.898,20.306
-6.158,5.018,10.453,20.319
-6.768,5.419,13.056,20.419
-4.851,2.695,13.284,20.421
-0.657,6.129,11.586,20.428
-0.575,4.653,9.658,20.433
0.079,3.5,11.254,20.523
-0.318,3.1,13.186,20.525
-0.251,2.8,13.111,20.527
0.977,3.3,12.199,20.532
1.358,2.5,11.33,20.533
1.515,1.2,10.26,20.535
1.114,-1.329,9.857,20.622
0.367,-1.492,9.427,20.624
0.088,-0.047,8.922,20.625
-0.533,1.508,8.527,20.627
-1.673,-0.682,8.735,20.629
-1.507,-2.247,9.559,20.722
-2.44,-1.78,9.611,20.723
-2.581,-2.359,9.767,20.728
-2.673,-3.063,10.785,20.737
-1.551,-2.574,9.584,20.739
-1.96,-4.12,8.989,20.822
-0.496,-7.202,10.409,20.823
0.586,-5.693,10.519,20.825
0.167,-2.834,10.051,20.827
-0.172,-2.214,9.162,20.828
-0.206,-3.529,8.529,20.897
0.31,-3.751,8.784,20.898
0.057,-4.516,8.749,20.9
0.629,-3.953,9.453,20.902
0.459,-3.206,9.506,20.903
-0.184,-3.022,9.555,20.995
-0.367,-3.933,9.367,20.998
0.241,-3.394,9.194,21.0
1.843,-1.171,9.221,21.122
3.232,-1.616,9.471,21.124
3.311,-2.955,9.25,21.132
2.089,-2.645,9.55,21.134
0.234,-2.417,9.226,21.143
-0.815,-3.589,8.566,21.233
-0.953,-3.56,8.581,21.235
-0.521,-3.409,8.928,21.236
0.277,-3.283,9.349,21.238
0.964,-3.498,9.394,21.24
0.828,-4.296,8.989,21.241
1.321,-4.602,8.746,21.322
1.31,-4.601,8.573,21.323
0.851,-4.505,7.964,21.334
0.683,-4.744,7.626,21.336
0.918,-4.793,8.017,21.338
0.87,-4.834,8.424,21.422
1.127,-4.757,7.947,21.424
0.701,-5.436,7.043,21.425
1.097,-4.591,7.371,21.427
1.233,-3.576,8.005,21.429
1.355,-3.466,7.598,21.497
2.26,-1.645,9.136,21.499
2.291,-3.068,8.104,21.516
1.902,-3.126,7.979,21.517
2.155,-2.966,7.998,21.519
2.223,-3.017,8.051,21.645
2.245,-3.534,7.902,21.647
1.042,-4.481,6.643,21.648
0.562,-5.172,6.215,21.65
0.227,-5.057,7.247,21.725
0.575,-5.716,6.239,21.732
0.864,-5.479,6.223,21.734
1.604,-4.646,7.572,21.736
2.606,-5.119,6.758,21.739
2.899,-3.664,8.657,21.741
2.545,-4.55,7.864,21.743
0.791,-4.591,8.273,21.821
0.191,-4.591,8.473,21.822
-0.282,-3.918,8.355,21.824
-1.327,-3.773,8.118,21.826
-2.76,-1.894,9.621,21.921
-4.111,-3.16,11.268,21.936
-3.713,-3.291,14.062,21.938
-0.953,-2.298,13.64,21.939
-2.296,-3.326,9.571,22.021
-4.518,-4.363,11.125,22.023
-2.179,-4.332,12.753,22.025
-1.123,-3.705,11.862,22.026
-1.429,-3.816,10.006,22.028
-1.302,-3.637,10.115,22.122
-0.607,-3.879,10.252,22.123
0.257,-4.105,9.702,22.135
1.017,-4.205,8.882,22.136
0.98,-4.4,8.14,22.14
0.779,-4.368,8.047,22.197
0.493,-4.479,7.552,22.199
0.316,-4.474,7.289,22.201
0.377,-4.505,7.362,22.204
-0.206,-4.611,7.944,22.205
-0.62,-4.5,8.34,22.326
-0.893,-4.921,8.248,22.337
-0.886,-4.811,8.704,22.341
-0.821,-4.068,9.247,22.342
0.649,-3.855,8.322,22.42
0.431,-4.343,7.71,22.421
0.727,-4.963,7.396,22.423
1.353,-3.435,8.635,22.427
1.408,-3.461,8.227,22.435
1.212,-4.341,7.741,22.437
0.771,-5.97,7.267,22.51
1.2,-5.9,7.3,22.513
1.643,-5.177,7.278,22.514
1.828,-4.893,6.69,22.517
0.36,-5.168,6.724,22.597
0.34,-5.092,6.956,22.598
0.52,-5.076,7.268,22.6
-0.18,-3.976,7.968,22.601
-1.28,-5.396,6.528,22.603
-3.14,-5.448,7.764,22.697
-4.32,-6.344,9.292,22.72
-3.86,-6.332,12.776,22.721
-1.94,-5.268,13.024,22.723
-0.46,-3.232,10.976,22.733
-0.855,-1.845,8.736,22.797
-0.645,-1.955,9.564,22.799
-1.191,-2.809,11.027,22.801
-1.545,-2.955,13.564,22.804
-0.882,-3.318,14.255,22.809
2.709,-2.632,13.096,22.897
3.14,-2.455,10.064,22.905
2.838,-2.728,8.485,22.907
2.204,-2.953,7.758,22.909
1.321,-3.191,6.772,22.911
1.098,-3.274,6.221,22.997
0.96,-3.245,6.236,22.998
1.004,-3.453,6.358,23.0
1.343,-3.408,6.723,23.002
1.406,-3.379,7.238,23.004
0.968,-4.051,7.153,23.145
1.217,-3.738,7.513,23.147
1.308,-3.406,7.717,23.149
1.67,-2.977,8.232,23.15
1.323,-3.317,8.351,23.152
0.957,-3.592,8.177,23.22
1.189,-4.042,7.825,23.221
1.325,-4.143,7.93,23.223
1.385,-4.189,8.566,23.224
0.996,-4.547,8.342,23.229
0.698,-4.874,8.221,23.231
0.899,-5.364,7.957,23.3
1.055,-5.45,8.236,23.301
-0.66,-5.272,8.696,23.303
-0.6,-4.86,8.48,23.421
-1.08,-4.376,8.668,23.423
-2.42,-4.644,7.692,23.425
-3.4,-5.3,8.9,23.43
-3.56,-6.152,11.536,23.432
-2.46,-6.272,13.696,23.523
-0.96,-5.372,12.496,23.529
-0.8,-4.46,9.28,23.53
-0.96,-4.212,7.116,23.532
-1.54,-4.708,7.444,23.534
-2.34,-6.288,8.884,23.535
-2.08,-6.956,11.108,23.537
-1.36,-7.332,10.776,23.624
-0.7,-6.54,8.72,23.625
-0.86,-6.232,5.976,23.627
-0.68,-6.176,5.068,23.628
-0.8,-6.14,5.52,23.63
0.046,-6.756,5.866,23.721
-0.131,-6.789,6.481,23.723
-0.477,-7.033,6.515,23.724
-0.747,-7.834,5.971,23.726
-0.979,-7.914,5.688,23.728
0.679,-8.645,4.066,23.827
1.202,-8.037,3.935,23.83
1.377,-7.908,3.631,23.848
1.351,-7.759,3.909,23.855
1.259,-8.118,3.806,23.915
1.386,-8.171,3.157,23.916
1.835,-7.969,3.29,23.918
0.535,-9.469,3.19,23.923
-0.406,-9.888,3.996,23.925
-0.588,-9.024,5.708,23.994
1.516,-8.033,2.278,23.996
3.208,-10.916,0.039,24.003
2.88,-9.059,4.353,24.004
3.449,-10.498,7.633,24.098
2.371,-9.043,9.214,24.1
0.843,-8.586,6.229,24.103
0.439,-9.378,5.259,24.104
1.206,-9.512,5.204,24.11
-1.294,-9.87,2.655,24.2
-0.813,-9.681,1.865,24.202
-1.084,-8.854,2.012,24.204
-0.773,-8.137,3.17,24.215
-1.98,-7.789,2.19,24.217
-1.859,-8.806,3.506,24.321
-2.19,-10.816,4.349,24.327
-0.549,-11.222,5.355,24.329
0.447,-10.135,4.635,24.331
0.924,-8.918,4.618,24.332
0.603,-9.053,3.372,24.397
0.904,-8.871,3.096,24.399
0.923,-8.66,2.821,24.4
1.455,-8.297,2.481,24.408
1.621,-8.725,1.873,24.41
2.557,-9.071,1.386,24.412
2.52,-8.804,1.645,24.52
2.294,-8.539,2.227,24.522
1.78,-9.096,1.455,24.523
1.633,-9.327,0.592,24.525
1.592,-9.218,1.902,24.622
1.149,-9.49,1.888,24.624
1.033,-9.927,2.592,24.635
1.318,-10.184,2.82,24.636
1.096,-10.259,2.751,24.638
0.676,-9.955,1.606,24.64
0.782,-9.716,2.88,24.721
0.704,-9.541,2.649,24.723
0.804,-10.641,2.949,24.724
0.857,-10.371,2.486,24.726
1.347,-9.969,2.063,24.728
-0.083,-9.709,0.5,24.821
0.151,-9.328,0.4,24.822
0.066,-9.381,-0.6,24.828
0.87,-10.294,-0.6,24.83
1.96,-10.911,-0.6,24.832
0.953,-11.185,-2.2,24.923
2.068,-10.138,-0.5,24.925
1.891,-8.717,-1.8,24.927
2.049,-8.972,-2.5,24.929
1.085,-8.747,-0.9,24.93
-1.225,-8.064,-0.9,24.996
-4.745,-8.842,1.7,24.997
-3.134,-8.781,2.6,24.999
-1.291,-9.283,4.7,25.001
0.204,-9.413,5.2,25.002
-0.622,-9.226,5.709,25.117
-1.581,-9.182,4.627,25.118
-1.95,-9.668,4.389,25.12
-1.907,-10.633,2.513,25.196
-0.8,-10.8,2.6,25.198
-0.082,-10.511,2.298,25.199
0.582,-10.089,1.202,25.201
0.507,-10.267,0.787,25.203
0.661,-8.874,-1.99,25.304
0.312,-9.263,-1.828,25.305
-0.381,-9.613,-2.555,25.307
-0.742,-9.039,-3.065,25.309
-1.222,-9.43,-2.695,25.31
-1.444,-9.144,-3.078,25.396
-0.47,-9.404,-3.015,25.43
-0.456,-9.156,-2.222,25.432
-0.267,-9.867,-0.767,25.435
0.396,-9.837,-1.848,25.438
1.03,-10.804,-1.015,25.504
1.156,-10.644,-0.878,25.506
0.97,-9.996,-0.585,25.507
0.715,-9.352,-0.807,25.509
0.904,-9.063,-0.952,25.511
0.913,-8.719,-2.335,25.596
0.547,-8.604,-2.786,25.597
0.607,-9.048,-2.88,25.599
0.732,-9.029,-2.999,25.601
0.558,-8.888,-3.243,25.602
0.442,-9.612,-2.557,25.696
-0.14,-9.744,-2.095,25.697
-0.78,-9.589,-2.49,25.699
-1.451,-9.561,-2.937,25.7
-1.406,-9.93,-2.445,25.702
-1.343,-9.709,-3.018,25.805
-1.127,-10.463,-2.83,25.807
0.003,-9.835,-3.477,25.808
1.747,-9.704,-2.886,25.81
2.275,-9.22,-2.081,25.812
1.132,-9.229,-1.599,25.925
-0.3,-9.4,-1.7,25.926
-1.054,-9.426,-2.16,25.928
-1.377,-9.924,-2.667,25.93
-1.073,-9.782,-4.327,25.931
0.095,-9.327,-4.801,26.033
0.658,-8.21,-4.448,26.035
1.083,-8.886,-3.863,26.037
1.853,-8.637,-4.749,26.038
1.877,-7.713,-4.965,26.04
2.625,-8.376,-3.915,26.042
2.749,-8.253,-3.23,26.121
2.549,-7.453,-3.63,26.122
2.182,-6.891,-4.424,26.124
1.998,-6.611,-4.82,26.142
1.865,-7.077,-4.887,26.143
2.176,-7.818,-4.825,26.22
2.133,-7.933,-4.533,26.225
2.215,-7.525,-4.257,26.226
1.767,-7.367,-4.467,26.228
2.198,-7.411,-4.42,26.23
1.791,-7.943,-4.382,26.296
1.938,-8.512,-3.692,26.297
1.758,-7.71,-3.848,26.299
1.939,-7.706,-4.232,26.301
2.216,-7.119,-4.097,26.306
1.867,-8.167,-3.567,26.394
1.933,-7.533,-4.233,26.396
2.073,-8.334,-3.705,26.399
2.37,-7.751,-4.186,26.401
1.145,-8.536,-3.745,26.495
1.027,-8.582,-3.627,26.497
1.127,-8.482,-3.827,26.498
0.309,-7.727,-4.609,26.511
2.208,-7.762,-5.278,26.596
2.756,-8.32,-4.869,26.597
2.394,-8.332,-4.961,26.599
2.403,-7.984,-4.719,26.6
1.691,-7.543,-4.582,26.602
0.408,-8.162,-4.878,26.72
-0.743,-9.415,-5.509,26.722
-1.165,-12.323,-6.513,26.724
0.127,-13.266,-6.695,26.725
0.615,-10.525,-4.957,26.727
-1.694,-9.668,-4.239,26.827
-1.256,-10.58,-4.431,26.829
0.098,-11.111,-3.72,26.83
0.47,-10.751,-3.386,26.832
0.388,-10.059,-3.262,26.834
0.506,-9.368,-4.139,26.835
0.612,-9.141,-5.338,26.837
1.156,-9.12,-4.769,26.92
1.224,-8.882,-3.875,26.939
1.009,-8.657,-3.818,26.941
0.187,-8.165,-4.123,26.942
-0.523,-7.613,-4.765,26.944
-0.647,-8.137,-4.749,27.022
-0.666,-8.428,-5.073,27.025
-0.878,-8.492,-5.096,27.032
-0.797,-8.084,-4.819,27.035
-0.687,-8.135,-4.377,27.122
-0.292,-8.062,-3.878,27.124
-0.071,-7.655,-4.474,27.133
0.199,-7.705,-4.66,27.135
0.405,-7.873,-4.799,27.222
0.752,-7.742,-4.01,27.223
0.706,-7.168,-4.339,27.225
0.49,-7.348,-4.442,27.227
0.096,-7.422,-4.941,27.228
0.235,-7.423,-5.813,27.23
-0.084,-7.945,-6.085,27.3
0.573,-7.091,-5.991,27.312
1.329,-7.136,-4.696,27.314
1.322,-6.727,-4.747,27.316
1.525,-6.782,-4.822,27.318
-0.518,-7.027,-5.127,27.393
-2.989,-8.064,-6.424,27.395
-2.375,-9.582,-7.122,27.396
-0.209,-11.464,-5.464,27.398
-2.01,-11.141,-3.562,27.495
-3.613,-10.207,-4.633,27.502
0.092,-13.575,-2.39,27.504
0.812,-12.115,-3.09,27.505
0.676,-10.948,-2.895,27.507
-0.302,-11.244,-3.548,27.597
0.651,-11.917,-3.414,27.599
0.1,-11.2,-4.4,27.601
0.344,-9.192,-4.405,27.603
0.361,-8.098,-4.176,27.604
1.561,-5.512,-6.076,27.697
2.193,-6.632,-5.058,27.721
1.379,-5.386,-5.412,27.723
1.605,-5.749,-5.116,27.725
1.433,-6.13,-5.046,27.734
0.854,-5.844,-5.334,27.796
0.738,-5.579,-5.461,27.797
1.218,-6.884,-5.399,27.799
1.154,-6.144,-6.234,27.801
1.252,-7.724,-5.608,27.803
0.851,-7.315,-5.645,27.895
0.541,-7.008,-6.45,27.9
1.026,-8.662,-5.704,27.902
0.275,-7.548,-5.759,27.904
0.488,-8.183,-4.843,27.905
-0.463,-8.31,-4.255,28.008
-0.757,-7.429,-5.014,28.01
-0.712,-9.363,-5.382,28.012
-1.353,-10.141,-5.72,28.013
-0.588,-10.737,-5.918,28.015
0.331,-10.792,-6.496,28.121
0.796,-9.188,-6.394,28.123
0.416,-7.349,-6.324,28.131
-0.051,-7.547,-6.373,28.133
0.722,-8.367,-7.784,28.134
0.389,-9.676,-7.454,28.223
0.932,-9.793,-6.399,28.233
1.132,-7.993,-5.999,28.235
1.016,-6.866,-5.909,28.237
1.079,-6.932,-6.347,28.239
0.143,-7.361,-7.03,28.24
0.365,-7.891,-7.596,28.324
0.609,-8.052,-7.526,28.326
0.9,-7.9,-6.9,28.328
0.813,-7.178,-6.939,28.33
0.7,-6.3,-7.1,28.331
0.157,-6.439,-6.67,28.42
0.748,-5.687,-7.143,28.426
-0.83,-4.617,-6.909,28.429
-0.639,-5.965,-6.383,28.441
0.2,-6.3,-6.5,28.444
0.47,-6.917,-5.709,28.522
-0.083,-5.104,-6.052,28.524
0.065,-6.491,-5.896,28.526
-0.713,-7.622,-6.361,28.528
2.32,-8.861,-6.131,28.622
2.439,-8.616,-6.208,28.625
2.041,-8.722,-5.861,28.627
1.857,-7.171,-5.886,28.628
2.039,-7.316,-5.808,28.63
0.033,-6.233,-7.733,28.724
1.044,-7.978,-7.944,28.726
0.924,-7.138,-7.644,28.727
1.018,-6.791,-7.078,28.729
0.68,-6.26,-7.4,28.731
0.388,-5.428,-7.826,28.82
0.42,-5.269,-7.764,28.826
0.544,-5.314,-7.713,28.828
0.872,-5.435,-7.246,28.841
1.369,-6.103,-7.083,28.843
1.492,-4.828,-8.868,28.924
1.485,-4.457,-9.136,28.925
1.347,-3.498,-8.175,28.927
1.24,-3.226,-8.243,28.932
2.209,-3.94,-8.215,28.934
0.468,-4.238,-7.416,29.02
0.705,-2.424,-7.148,29.021
1.89,-4.348,-8.155,29.023
2.371,-6.257,-10.314,29.025
2.32,-7.9,-12.24,29.031
2.454,-4.069,-11.8,29.095
2.392,-1.062,-9.3,29.096
2.554,-0.669,-7.8,29.098
3.215,-2.777,-8.3,29.104
3.008,-5.138,-11.1,29.105
1.538,-6.292,-12.0,29.194
1.146,-4.831,-10.5,29.196
0.777,-3.685,-8.8,29.214
0.677,-3.185,-7.5,29.216
1.638,-2.632,-6.716,29.301
0.895,-2.041,-8.57,29.304
1.229,-3.894,-9.597,29.305
2.352,-3.63,-9.165,29.307
1.805,-3.159,-8.03,29.308
1.575,-0.387,-8.781,29.42
1.291,-0.864,-9.977,29.426
2.138,-1.743,-11.091,29.428
2.168,-1.798,-10.683,29.429
2.366,-1.451,-10.258,29.431
1.806,-1.142,-10.274,29.528
1.708,-1.689,-9.898,29.529
1.694,-1.558,-8.726,29.532
1.615,-1.477,-8.096,29.533
1.511,-1.183,-8.147,29.535
1.877,-1.034,-9.406,29.537
1.796,-1.106,-9.851,29.62
1.802,-1.047,-9.525,29.63
1.657,-1.015,-9.436,29.631
1.575,-1.187,-9.281,29.633
1.687,-1.07,-9.028,29.642
1.683,-0.875,-8.879,29.724
1.798,-0.953,-8.775,29.725
1.849,-0.826,-8.738,29.727
1.713,-0.83,-9.072,29.729
2.185,-0.823,-9.204,29.732
2.313,-0.33,-9.172,29.82
2.162,-0.357,-9.409,29.821
2.413,-0.23,-10.172,29.823
2.621,-0.719,-10.67,29.825
2.891,-0.864,-11.077,29.826
-0.959,2.39,-10.882,29.919
-0.12,1.7,-10.66,29.921
0.348,1.724,-9.695,29.923
0.34,1.6,-8.88,29.924
0.381,1.89,-8.762,29.926
-1.457,3.771,-7.586,30.02
-1.613,4.533,-7.373,30.021
-0.94,3.7,-7.42,30.023
-0.486,2.857,-7.029,30.025
-0.146,2.657,-6.909,30.026
-0.216,1.857,-7.784,30.121
0.369,1.414,-7.069,30.123
0.12,2.504,-5.52,30.14
-1.051,4.21,-4.849,30.142
-2.094,4.441,-6.006,30.143
-0.497,3.666,-7.663,30.194
-1.198,2.711,-8.409,30.195
-1.374,1.894,-7.868,30.197
-1.425,2.161,-6.686,30.203
0.243,4.026,-7.751,30.293
-1.557,4.026,-9.251,30.295
-2.281,3.378,-9.956,30.297
-2.943,2.254,-9.209,30.298
-0.413,3.736,-8.304,30.395
-0.213,5.536,-7.704,30.43
-0.791,6.543,-9.264,30.432
-2.002,6.189,-10.934,30.434
-2.289,5.953,-10.73,30.437
0.275,7.833,-8.119,30.516
-0.564,8.028,-7.859,30.525
-0.828,8.625,-8.043,30.527
-0.988,8.799,-8.228,30.529
-0.949,8.904,-8.488,30.53
1.349,10.09,-7.384,30.594
1.069,10.286,-7.498,30.595
0.598,9.98,-7.569,30.597
0.216,9.757,-7.451,30.599
-0.282,10.076,-7.782,30.601
2.798,10.192,-8.118,30.699
3.222,9.89,-7.898,30.701
3.373,8.994,-7.239,30.702
3.241,8.263,-6.533,30.704
3.014,7.957,-5.971,30.706
2.941,7.763,-5.733,30.808
2.692,7.867,-5.473,30.813
2.631,8.022,-5.324,30.816
2.843,7.771,-5.714,30.821
2.79,7.859,-5.492,30.823
1.913,8.524,-4.036,30.894
1.989,8.064,-4.439,30.896
2.003,7.783,-4.462,30.901
1.88,7.722,-4.665,30.903
1.686,7.982,-4.477,30.904
1.753,8.28,-4.606,30.996
1.603,8.783,-4.762,30.998
1.373,9.063,-4.853,31.0
1.169,8.986,-4.904,31.003
1.046,8.926,-5.107,31.005
-0.187,9.361,-4.822,31.119
-0.239,9.517,-4.935,31.121
-0.226,9.578,-4.857,31.123
-0.178,9.435,-4.37,31.124
-0.335,9.004,-4.009,31.142
-0.396,8.587,-3.674,31.225
-0.287,8.461,-3.722,31.227
-0.204,8.413,-3.826,31.228
-0.135,8.504,-3.909,31.23
-0.161,8.583,-3.965,31.232
-0.104,8.613,-4.126,31.233
-0.555,7.451,-5.922,31.319
-0.459,7.312,-5.959,31.321
-0.396,7.239,-6.063,31.323
-0.161,7.392,-6.027,31.324
-0.049,7.61,-6.016,31.331
-0.151,7.89,-5.984,31.419
-0.09,7.898,-5.857,31.421
-0.063,7.973,-5.796,31.422
-0.008,8.122,-5.675,31.424
0.11,8.198,-5.657,31.426
0.11,8.198,-5.657,31.519
0.143,8.131,-5.59,31.521
0.171,8.206,-5.529,31.531
0.143,8.131,-5.59,31.532
0.086,8.063,-5.48,31.534
0.059,7.988,-5.541,31.619
-0.031,7.986,-5.498,31.621
-0.037,8.127,-5.504,31.626
-0.01,8.202,-5.443,31.628
-0.133,8.267,-5.467,31.629
-0.043,8.269,-5.51,31.72
-0.071,8.194,-5.571,31.721
-0.065,8.053,-5.565,31.723
-0.155,8.051,-5.522,31.725
-0.218,8.124,-5.418,31.726
-0.218,8.124,-5.418,31.819
-0.122,7.984,-5.455,31.821
-0.245,8.049,-5.478,31.823
-0.306,8.041,-5.606,31.824
-0.306,8.041,-5.606,31.826
-0.249,8.11,-5.716,31.918
-0.339,8.108,-5.673,31.929
-0.282,8.176,-5.782,31.938
-0.31,8.102,-5.843,31.94
-0.31,8.102,-5.843,32.02
-0.31,8.102,-5.843,32.025
-0.276,8.035,-5.776,32.027
-0.214,7.963,-5.88,32.028
-0.214,7.963,-5.88,32.03
-0.18,7.896,-5.814,32.119
-0.153,7.971,-5.753,32.121
-0.153,7.971,-5.753,32.134
-0.063,7.973,-5.796,32.137
-0.131,8.186,-5.698,32.139
-0.104,8.261,-5.637,32.22
-0.071,8.194,-5.571,32.222
0.041,8.412,-5.559,32.224
0.243,8.631,-5.59,32.225
0.327,8.775,-5.639,32.227
0.62,8.996,-5.714,32.344
0.829,8.994,-5.971,32.356
1.178,9.284,-6.155,32.359
1.055,9.349,-6.178,32.361
1.51,9.298,-6.157,32.364
1.935,9.953,-6.165,32.452
1.896,10.161,-6.237,32.455
2.194,10.341,-5.606,32.457
2.386,10.763,-5.88,32.458
2.725,10.555,-6.108,32.46
3.118,10.576,-5.982,32.462
2.622,9.909,-7.138,32.518
2.922,10.729,-6.398,32.519
1.519,9.483,-7.805,32.525
2.197,8.493,-8.024,32.527
0.735,7.759,-8.4,32.618
0.812,6.553,-7.9,32.62
1.567,7.333,-6.133,32.622
1.059,5.665,-6.6,32.623
2.39,4.939,-6.333,32.625
-1.41,3.621,-7.442,32.72
-1.324,2.692,-7.585,32.722
-0.39,1.279,-7.358,32.732
0.057,0.674,-7.149,32.733
0.676,0.552,-7.105,32.735
-0.436,0.3,-7.944,32.819
-0.768,0.7,-8.317,32.825
-0.552,0.4,-8.375,32.83
-0.003,0.4,-8.57,32.831
0.193,-0.5,-8.531,32.833
0.506,-0.9,-8.059,32.922
0.564,-0.9,-7.844,32.923
0.232,-0.1,-8.217,32.925
-0.101,-0.8,-8.59,32.927
0.312,-1.6,-9.119,32.928
-1.3,-1.6,-9.5,33.029
-1.2,-1.6,-9.8,33.03
-0.9,-1.6,-10.1,33.032
-1.1,-0.8,-10.2,33.034
-1.0,-1.1,-10.6,33.045
-0.6,-2.902,-9.82,33.158
0.1,-2.254,-9.645,33.16
-0.1,-2.314,-9.939,33.162
0.0,-2.649,-10.585,33.163
0.1,-2.413,-10.429,33.165
1.235,-2.553,-9.665,33.219
1.404,-2.339,-9.296,33.221
1.463,-2.627,-9.237,33.222
1.435,-2.453,-8.865,33.227
1.429,-2.394,-8.571,33.229
1.62,-2.796,-8.18,33.319
1.675,-3.045,-7.925,33.321
1.724,-3.335,-8.376,33.322
1.573,-3.125,-8.727,33.324
1.341,-3.012,-8.959,33.331
1.325,-2.955,-9.175,33.419
1.282,-3.224,-8.918,33.421
1.304,-2.839,-9.096,33.422
0.959,-3.188,-9.441,33.434
1.275,-3.245,-9.525,33.443
1.388,-2.782,-9.412,33.518
1.408,-2.878,-9.392,33.52
1.331,-3.514,-9.369,33.523
1.643,-3.531,-9.257,33.526
1.561,-3.108,-9.139,33.619
1.467,-3.167,-9.333,33.62
1.273,-3.225,-9.427,33.623
1.388,-3.282,-9.312,33.624
1.363,-3.127,-9.037,33.626
1.031,-3.014,-9.169,33.719
1.386,-2.763,-9.314,33.721
1.149,-3.09,-9.151,33.722
1.265,-3.147,-9.035,33.724
1.482,-3.224,-9.118,33.731
1.327,-3.475,-9.173,33.821
1.486,-3.263,-9.314,33.822
1.255,-3.649,-9.445,33.824
1.643,-3.531,-9.257,33.836
1.561,-3.608,-9.039,33.85
