vertical_Accel_x,vertical_Accel_y,vertical_Accel_z,accel_time_list
0.875,-8.751,3.902,0.0
0.527,-9.36,3.814,0.001
0.892,-9.152,4.337,0.003
0.2,-9.088,3.484,0.126
-1.0,-8.976,3.868,0.128
-0.7,-9.032,3.676,0.133
-0.2,-8.908,3.744,0.135
-0.2,-8.828,3.304,0.137
0.0,-8.872,2.796,0.228
-0.4,-8.608,3.344,0.23
-0.6,-8.4,3.7,0.231
-0.6,-8.276,3.768,0.237
-0.7,-8.304,3.672,0.239
-0.8,-7.988,3.684,0.241
0.447,-7.732,2.779,0.327
-1.316,-6.874,2.911,0.329
-2.904,-5.472,3.425,0.33
-4.137,-4.705,3.458,0.332
-4.849,-3.907,2.544,0.337
-4.228,-2.975,1.396,0.462
-3.427,-2.509,0.091,0.464
-3.287,-1.892,-0.792,0.465
-3.622,-1.544,-1.644,0.467
-3.488,-1.841,-2.841,0.47
-3.107,-1.73,-4.859,0.526
-3.944,-2.278,-6.356,0.527
-2.951,-2.384,-9.057,0.529
-2.716,-3.449,-12.21,0.53
0.064,-0.952,-15.36,0.603
-2.064,-1.548,-15.44,0.605
-5.944,-2.708,-16.34,0.606
-9.132,-4.224,-19.12,0.608
-9.768,-6.076,-21.28,0.614
-3.555,-5.567,-23.58,0.616
3.598,-8.591,-20.672,0.7
2.177,-7.51,-18.106,0.701
1.014,-6.156,-14.582,0.703
0.788,-5.853,-11.646,0.705
3.885,-1.486,-10.444,0.812
2.957,-1.717,-10.769,0.813
2.458,-0.997,-10.287,0.816
1.788,0.075,-10.799,0.82
1.241,1.476,-11.095,0.822
-0.165,3.789,-9.887,0.926
0.691,3.949,-8.912,0.928
1.427,3.954,-8.164,0.929
2.082,3.697,-7.724,0.932
2.576,3.396,-7.432,0.933
1.2,3.7,-7.4,1.027
1.3,3.5,-8.1,1.029
0.9,3.6,-9.2,1.031
0.6,3.9,-10.6,1.032
-0.1,3.9,-11.5,1.034
-1.0,3.4,-11.8,1.036
-1.368,1.553,-12.532,1.126
-1.684,1.426,-13.016,1.132
-1.729,1.09,-13.271,1.133
-1.712,0.53,-12.888,1.148
-1.576,0.139,-11.924,1.15
-1.312,-1.382,-10.688,1.226
-0.708,-1.355,-9.992,1.227
0.147,-1.171,-9.247,1.229
0.984,-0.71,-8.684,1.231
1.367,-0.433,-8.467,1.232
0.452,-0.313,-8.579,1.326
0.244,-0.054,-8.911,1.327
-0.256,-0.054,-9.111,1.329
-0.593,-0.359,-9.168,1.331
-0.601,-0.392,-8.947,1.332
-0.005,-2.668,-8.595,1.43
-0.223,-2.43,-9.277,1.432
-0.454,-2.24,-10.046,1.434
-0.435,-2.123,-10.465,1.435
-0.558,-1.953,-10.542,1.437
0.235,-4.1,-9.759,1.526
-0.157,-4.233,-9.361,1.527
-0.408,-4.367,-8.698,1.537
-0.482,-4.7,-8.129,1.544
-0.294,-4.8,-7.776,1.546
-0.151,-4.733,-7.437,1.628
-0.108,-4.367,-7.498,1.63
-0.069,-3.833,-7.708,1.631
-0.125,-3.467,-8.169,1.633
-0.004,-3.233,-8.649,1.635
-0.287,0.094,-9.513,1.727
0.215,0.436,-9.815,1.728
0.677,0.524,-9.677,1.738
0.659,0.275,-9.459,1.74
0.699,-0.171,-9.599,1.742
2.691,0.517,-9.949,1.8
3.191,0.217,-10.749,1.802
2.411,0.054,-11.838,1.803
1.642,-0.44,-12.921,1.805
3.081,-2.31,-13.922,1.899
3.71,-2.565,-14.999,1.901
3.848,-2.984,-14.875,1.911
3.386,-4.103,-14.351,1.912
3.539,-4.776,-14.535,2.001
3.37,-4.862,-14.212,2.002
2.898,-4.052,-13.81,2.017
4.609,-2.479,-12.111,2.019
3.13,-1.626,-10.487,2.022
0.197,-1.929,-10.166,2.101
-0.085,-3.081,-10.216,2.103
0.29,-3.562,-9.652,2.105
0.994,-3.657,-9.031,2.106
1.83,-3.438,-9.188,2.108
1.496,-2.722,-9.364,2.202
2.409,-1.156,-9.471,2.204
2.536,-0.322,-9.084,2.206
1.944,-0.178,-8.556,2.208
1.236,-0.422,-8.184,2.21
0.507,2.065,-7.569,2.301
0.525,1.884,-7.242,2.302
0.487,1.808,-7.129,2.312
0.417,1.144,-7.339,2.313
0.357,-0.966,-7.552,2.315
-1.213,-3.094,-7.085,2.426
-0.911,-3.345,-7.504,2.427
-1.249,-3.726,-8.26,2.429
-1.002,-3.749,-9.881,2.43
-1.017,-3.891,-11.047,2.432
-0.494,-3.653,-11.957,2.502
0.002,-3.151,-11.519,2.504
-0.391,-3.104,-10.877,2.505
-1.1,-3.0,-10.4,2.511
-1.774,-3.013,-10.33,2.513
-2.1,-3.2,-10.5,2.515
-2.08,-5.914,-8.904,2.599
-0.922,-4.855,-8.316,2.601
-0.19,-3.557,-8.302,2.607
-0.437,-3.604,-8.173,2.609
2.214,-5.133,-7.678,2.726
2.035,-5.3,-7.659,2.738
1.918,-4.7,-8.729,2.74
1.404,-4.667,-9.551,2.742
0.641,-5.0,-9.635,2.749
0.385,-7.244,-7.555,2.827
0.242,-7.375,-6.818,2.829
0.353,-7.242,-5.727,2.83
0.489,-6.833,-4.691,2.832
0.587,-6.338,-3.973,2.834
0.413,-5.662,-3.927,2.835
-0.102,-5.105,-4.282,2.926
-0.52,-4.86,-4.7,2.927
-0.6,-4.3,-5.2,2.929
0.093,-3.422,-5.927,2.931
0.838,-3.185,-6.582,2.932
1.974,-0.836,-8.429,3.026
2.642,-1.695,-10.837,3.028
2.737,-2.778,-13.735,3.029
2.358,-4.265,-16.383,3.031
1.032,-5.661,-16.233,3.04
0.915,-6.86,-15.096,3.126
0.572,-7.388,-13.937,3.128
0.525,-7.599,-12.822,3.129
0.868,-7.571,-11.681,3.131
1.848,-6.994,-10.929,3.132
2.27,-5.78,-10.709,3.226
1.898,-3.991,-10.772,3.228
1.232,-1.829,-11.019,3.229
1.053,0.467,-11.127,3.231
0.538,-1.011,-10.902,3.233
-1.618,-2.258,-10.445,3.326
-1.563,-3.083,-9.311,3.327
-0.933,-3.362,-8.001,3.329
0.032,-3.451,-6.896,3.359
0.163,-4.059,-5.526,3.361
-0.848,-3.611,-5.008,3.425
-0.456,-3.095,-4.836,3.429
0.1,-2.4,-4.7,3.431
0.635,-1.732,-4.785,3.447
1.513,-1.206,-4.915,3.526
1.649,-1.174,-4.74,3.527
1.332,-1.066,-5.487,3.529
1.44,-0.57,-6.064,3.531
1.534,-0.817,-6.206,3.532
1.847,-0.279,-6.168,3.626
1.915,-0.518,-6.337,3.633
2.327,-0.419,-6.668,3.635
2.571,-0.164,-7.526,3.638
2.6,-2.0,-8.7,3.641
2.829,-0.036,-10.574,3.726
1.903,0.375,-12.358,3.727
1.461,0.412,-13.953,3.733
0.783,-1.691,-15.147,3.735
1.557,-1.879,-15.717,3.737
3.722,-2.844,-15.144,3.826
3.607,-2.548,-15.315,3.827
2.659,-1.885,-15.519,3.829
0.711,-2.122,-15.322,3.839
-1.796,-3.874,-14.507,3.845
4.189,-12.224,-6.151,3.926
2.889,-11.124,-3.851,3.927
1.3,-8.26,-3.18,3.929
1.222,-7.271,-4.158,3.931
2.044,-7.662,-4.476,3.932
1.387,-8.868,-2.052,4.029
2.397,-9.242,-2.413,4.031
3.166,-9.647,-3.304,4.032
2.21,-8.998,-5.21,4.034
2.041,-7.612,-5.541,4.036
-0.268,-7.218,-6.287,4.13
-0.852,-7.127,-6.43,4.132
-1.086,-6.33,-6.227,4.134
-1.542,-5.799,-6.126,4.136
-1.922,-5.565,-6.101,4.138
-3.191,-4.903,-6.189,4.201
-3.02,-5.36,-6.3,4.209
-2.949,-6.117,-6.411,4.219
-2.879,-6.874,-6.521,4.221
-2.903,-7.599,-6.637,4.223
-3.277,-9.485,-5.896,4.301
-3.1,-11.1,-5.9,4.303
-4.191,-12.06,-6.515,4.309
-5.675,-12.617,-7.679,4.311
-6.557,-12.738,-8.009,4.401
-6.617,-12.411,-7.453,4.402
-6.098,-11.032,-6.283,4.404
-5.16,-10.374,-5.543,4.406
-3.791,-10.26,-5.515,4.407
-1.061,-10.637,-4.217,4.501
-0.125,-9.684,-3.324,4.503
-0.203,-9.111,-2.791,4.505
-0.959,-9.363,-2.423,4.506
-1.452,-9.305,-1.845,4.509
-2.104,-8.859,-0.241,4.625
-1.981,-8.404,0.204,4.627
-1.774,-8.185,0.485,4.637
-2.056,-7.689,1.089,4.646
-2.152,-6.93,1.53,4.648
-1.531,-6.395,2.402,4.729
-0.386,-5.931,2.347,4.733
0.319,-5.535,2.186,4.735
0.377,-5.041,1.543,4.737
0.024,-4.839,0.624,4.742
-0.056,-5.356,-0.122,4.744
0.542,-5.86,-2.838,4.825
0.136,-6.634,-3.696,4.827
-0.532,-7.417,-3.898,4.829
-1.066,-8.158,-5.249,4.83
-0.204,-10.549,-6.706,4.832
-0.227,-13.637,-4.363,4.927
0.094,-14.429,-3.671,4.929
-1.122,-15.508,-3.892,4.931
-1.7,-16.2,-4.3,4.933
-1.124,-16.418,-4.282,4.934
2.899,-14.389,-6.21,5.03
2.174,-13.436,-6.337,5.032
1.127,-12.775,-5.953,5.033
-0.052,-12.284,-5.065,5.035
-1.188,-11.921,-3.891,5.037
1.16,-11.309,-0.015,5.125
0.353,-10.321,0.087,5.126
0.377,-9.534,0.106,5.129
0.856,-7.978,1.856,5.137
0.827,-6.182,3.273,5.225
1.347,-5.287,3.441,5.227
1.663,-5.066,3.193,5.229
2.035,-5.384,3.02,5.23
0.671,-6.254,2.902,5.232
-0.507,-7.283,2.984,5.338
0.247,-8.601,3.166,5.341
0.728,-10.469,2.865,5.344
0.596,-12.062,2.205,5.346
-0.222,-12.889,2.078,5.348
-1.708,-13.823,3.01,5.431
-3.401,-13.94,3.026,5.433
-4.56,-13.584,3.049,5.442
-4.873,-13.109,3.391,5.444
-4.401,-12.64,4.226,5.448
-6.03,-12.246,2.176,5.5
-3.456,-12.048,2.804,5.502
-0.349,-10.932,2.681,5.504
-0.159,-9.257,2.215,5.505
-1.289,-7.903,2.392,5.507
-1.258,-7.574,1.506,5.598
-1.609,-7.715,0.74,5.6
-1.574,-7.501,-0.74,5.602
-1.319,-6.996,-1.804,5.603
0.214,-6.921,-2.741,5.705
0.816,-6.647,-2.947,5.707
0.862,-5.826,-2.886,5.71
0.759,-5.437,-2.477,5.712
0.665,-5.316,-2.396,5.714
0.423,-5.489,-2.169,5.803
-0.176,-5.853,-2.073,5.804
-0.892,-6.505,-1.925,5.806
-0.873,-7.963,-1.137,5.808
-1.147,-9.535,-1.365,5.809
-1.498,-11.09,-1.71,5.9
-1.694,-12.471,-2.129,5.902
-1.369,-13.143,-2.357,5.904
-0.731,-12.757,-2.543,5.905
-0.267,-12.133,-2.667,5.907
1.3,-11.7,-2.9,6.0
0.6,-12.4,-3.3,6.002
0.2,-13.8,-4.0,6.004
0.2,-14.7,-4.8,6.007
0.0,-14.3,-4.6,6.02
2.096,-13.161,-1.304,6.104
1.382,-12.124,-1.118,6.106
0.863,-12.027,-0.637,6.108
0.714,-12.237,0.014,6.109
0.625,-11.755,0.425,6.119
-0.334,-10.192,4.038,6.2
0.018,-8.81,3.777,6.202
0.349,-7.294,3.554,6.203
0.879,-5.753,3.344,6.205
1.305,-4.662,2.564,6.207
0.571,-3.386,3.357,6.327
0.427,-3.206,2.961,6.329
0.458,-3.652,2.35,6.335
0.137,-3.929,2.174,6.336
0.133,-4.133,1.933,6.427
0.379,-4.576,1.725,6.429
0.873,-5.333,1.613,6.435
1.584,-6.495,1.801,6.437
1.77,-8.962,2.608,6.439
0.901,-12.224,3.235,6.44
-0.307,-14.633,2.853,6.442
-1.558,-15.748,2.45,6.526
-2.503,-15.529,2.694,6.527
-3.066,-15.257,3.469,6.537
-3.473,-15.367,5.187,6.538
-2.921,-14.676,6.625,6.54
-1.482,-11.752,10.01,6.625
0.232,-10.741,9.442,6.627
1.623,-10.015,7.887,6.628
2.097,-9.362,6.714,6.63
1.579,-9.11,6.304,6.632
0.25,-7.393,8.851,6.725
-0.594,-7.182,9.083,6.728
-1.185,-6.504,8.856,6.739
-1.349,-5.92,8.246,6.741
-1.121,-5.201,7.464,6.826
-0.597,-4.441,6.691,6.828
0.037,-3.717,5.789,6.83
0.616,-3.317,4.853,6.831
0.903,-3.041,4.091,6.833
0.038,-2.515,4.046,6.925
0.138,-2.815,3.646,6.927
0.415,-3.046,3.638,6.948
0.462,-3.785,4.054,6.95
0.131,-4.492,4.277,6.951
-0.231,-4.808,4.623,7.025
-0.546,-4.962,5.685,7.03
-0.985,-5.446,7.038,7.032
-1.369,-5.492,7.577,7.033
-1.446,-5.262,8.285,7.035
-1.54,-4.3,9.78,7.125
-1.55,-4.248,10.418,7.127
-1.623,-4.214,10.931,7.128
-1.676,-4.381,11.305,7.13
-1.574,-4.671,11.377,7.131
-2.102,-3.143,11.657,7.225
-2.286,-3.298,11.702,7.227
-2.812,-3.959,11.941,7.228
-2.757,-4.551,12.349,7.23
-1.616,-4.845,12.455,7.231
3.348,-4.336,11.5,7.324
3.456,-3.992,10.0,7.338
2.368,-3.476,9.4,7.34
1.28,-2.96,9.2,7.342
0.356,-2.292,9.1,7.343
-0.73,2.121,9.11,7.424
-0.981,2.528,9.358,7.426
0.28,3.0,9.04,7.428
0.362,2.889,8.298,7.429
0.698,2.711,7.782,7.431
0.965,3.258,6.539,7.529
1.041,2.663,5.831,7.531
1.106,2.326,5.684,7.533
1.166,2.162,6.153,7.534
1.091,2.066,7.088,7.536
1.44,0.8,8.42,7.602
2.089,-0.044,9.211,7.604
2.489,-0.744,10.411,7.606
2.411,-0.656,12.289,7.608
1.536,0.122,13.584,7.609
0.633,3.133,13.533,7.698
0.424,4.395,13.808,7.7
0.495,5.578,13.23,7.702
0.06,6.341,12.783,7.704
-1.194,9.355,13.624,7.826
-4.422,9.898,15.31,7.828
-5.704,10.463,14.584,7.83
-3.631,9.924,11.278,7.832
-2.198,10.518,6.308,7.834
-6.776,6.995,2.096,7.926
-2.061,2.826,4.941,7.927
-1.576,1.395,10.496,7.929
0.486,4.242,5.694,7.931
1.297,8.879,3.183,7.934
2.512,5.711,6.028,7.936
3.054,2.809,7.757,7.999
3.106,4.311,7.443,8.001
2.284,4.701,7.262,8.003
1.629,3.757,6.714,8.004
0.79,1.748,6.195,8.017
-0.11,-0.516,5.984,8.097
-1.263,-1.28,5.52,8.099
-0.845,-1.807,5.597,8.105
0.26,-2.32,6.0,8.224
0.62,-2.84,6.9,8.226
0.732,-3.224,8.7,8.227
0.76,-3.32,10.3,8.229
0.292,-3.144,11.7,8.231
-0.699,-1.214,13.501,8.325
-0.394,-1.185,14.106,8.327
0.291,-1.073,13.491,8.329
0.705,-1.171,13.105,8.33
0.623,-1.325,12.823,8.332
0.465,-1.605,13.165,8.338
-0.2,-4.2,13.7,8.424
-0.0,-4.8,14.0,8.426
-0.1,-4.7,13.2,8.427
-0.5,-4.1,11.7,8.433
-1.0,-3.9,10.6,8.445
1.506,-0.494,10.441,8.528
1.267,-0.033,10.267,8.531
1.288,0.388,9.918,8.533
1.343,0.943,9.302,8.535
1.598,1.298,8.686,8.536
0.551,3.144,7.809,8.625
0.833,3.233,7.167,8.626
1.14,3.1,6.52,8.628
1.218,2.711,6.142,8.63
1.111,2.344,5.889,8.631
-0.141,2.485,5.519,8.724
-0.278,2.144,5.244,8.726
-0.404,1.826,5.193,8.728
-0.585,1.796,5.43,8.73
-0.744,1.811,6.111,8.734
-0.609,1.01,7.591,8.825
-0.564,1.13,9.836,8.827
-0.362,1.088,11.838,8.829
-0.126,0.889,13.474,8.84
-0.14,0.454,14.86,8.841
-0.627,0.66,15.273,8.925
-1.323,1.076,15.577,8.927
-2.04,1.854,16.16,8.929
-2.3,3.0,16.3,8.93
-0.847,1.529,15.453,8.932
1.045,0.784,13.245,9.0
1.606,0.059,11.706,9.001
0.692,0.255,11.092,9.003
-0.65,2.607,10.649,9.01
-1.229,3.008,10.013,9.014
0.042,3.289,9.038,9.132
-1.258,2.816,8.125,9.134
-0.946,2.539,7.163,9.136
-0.619,2.172,6.242,9.137
-0.283,1.755,5.452,9.201
0.178,1.213,4.833,9.203
0.362,0.53,4.486,9.204
0.45,-0.093,4.549,9.214
0.413,-0.477,4.938,9.216
0.37,-0.779,5.51,9.223
0.952,-3.264,5.3,9.298
0.968,-3.676,6.2,9.3
1.684,-3.988,6.9,9.301
2.276,-4.232,7.3,9.303
1.337,-3.123,8.137,9.433
1.215,-2.912,9.015,9.435
1.63,-2.924,9.93,9.436
1.88,-2.517,10.38,9.438
1.367,-1.733,10.667,9.44
3.057,1.929,10.686,9.499
2.351,3.386,11.317,9.501
1.661,4.924,12.365,9.503
1.387,5.967,13.373,9.504
1.652,6.41,13.662,9.506
4.927,11.067,9.171,9.599
5.141,10.894,10.217,9.6
5.615,10.927,11.846,9.617
6.825,10.076,12.69,9.619
5.385,9.083,12.128,9.699
4.298,7.04,11.247,9.701
2.821,6.396,10.432,9.703
-0.698,4.818,11.408,9.708
-1.937,5.769,11.553,9.709
-3.218,7.589,10.86,9.799
-3.973,7.663,10.453,9.801
-4.594,7.135,10.576,9.806
-4.345,6.132,10.619,9.808
-3.13,4.919,10.409,9.809
-4.768,5.911,6.632,9.901
-3.443,5.819,5.237,9.903
-2.82,5.76,4.7,9.904
-2.654,5.582,4.726,9.906
-2.799,5.434,5.021,9.908
-4.489,5.435,4.191,10.024
-4.675,5.186,4.398,10.026
-4.997,4.973,4.625,10.035
-4.987,4.751,4.607,10.037
-5.124,4.572,4.51,10.045
-5.5,4.94,4.92,10.126
-5.527,5.262,5.213,10.129
-5.373,5.498,4.967,10.13
-5.282,6.045,4.818,10.132
-5.591,6.813,4.629,10.133
-5.691,7.013,4.229,10.135
-4.481,8.428,2.045,10.224
-4.645,8.632,1.711,10.23
-3.728,9.374,0.698,10.232
-3.499,9.664,0.637,10.234
-3.304,10.044,0.552,10.235
-2.722,9.865,-3.13,10.324
-2.691,10.174,-3.248,10.331
-2.839,10.517,-3.235,10.333
-2.961,10.583,-3.265,10.335
-3.083,10.448,-3.396,10.336
-1.096,9.616,-5.763,10.438
-1.435,9.561,-5.912,10.439
-1.559,10.363,-6.933,10.442
-1.765,11.939,-8.188,10.448
-0.389,10.806,-10.276,10.458
-0.173,5.949,-11.348,10.524
0.185,4.39,-9.47,10.526
0.003,3.856,-8.569,10.528
-0.288,4.339,-9.118,10.53
-0.28,5.037,-11.111,10.531
0.067,3.573,-12.653,10.624
0.5,3.66,-12.38,10.626
1.411,3.702,-11.862,10.627
2.578,3.756,-10.656,10.629
3.767,3.053,-9.793,10.631
3.07,1.037,-9.781,10.729
3.756,1.256,-9.222,10.733
4.23,1.463,-8.919,10.735
4.663,1.196,-8.952,10.737
5.015,0.981,-8.959,10.746
4.887,-0.774,-9.207,10.828
5.214,-0.741,-9.099,10.829
5.233,-0.457,-9.429,10.831
3.557,0.102,-10.79,10.833
3.737,0.339,-11.204,10.834
4.116,0.99,-11.149,10.923
4.314,1.404,-10.68,10.925
4.39,1.669,-10.157,10.926
3.966,-0.337,-10.14,10.933
3.6,-0.4,-9.6,10.934
2.32,-0.1,-9.74,11.023
2.484,0.26,-9.488,11.025
2.772,0.18,-9.204,11.027
2.728,-0.28,-8.796,11.032
2.792,-1.42,-7.844,11.034
1.09,-1.387,-8.298,11.124
0.89,-1.587,-7.998,11.126
1.193,-2.318,-7.317,11.133
1.844,-2.283,-7.026,11.147
2.085,-2.136,-7.034,11.149
0.759,-1.688,-7.459,11.224
1.202,-1.92,-7.469,11.225
1.618,-2.776,-7.218,11.227
1.955,-3.349,-7.022,11.229
1.473,-3.325,-6.939,11.231
-0.169,-3.322,-6.876,11.299
0.482,-4.227,-6.135,11.3
0.316,-4.665,-6.147,11.302
0.927,-5.106,-5.939,11.304
1.192,-8.467,-4.227,11.305
1.757,-7.568,-3.941,11.421
0.309,-3.952,-6.626,11.423
-1.009,1.352,-12.174,11.425
0.317,-8.904,-6.752,11.526
1.07,-9.817,-6.609,11.527
1.784,-8.814,-6.331,11.533
1.884,-7.894,-6.271,11.535
1.826,-8.091,-5.656,11.597
2.142,-8.797,-5.185,11.599
1.837,-8.635,-5.162,11.701
1.547,-7.739,-5.748,11.703
1.342,-6.497,-6.785,11.704
1.553,-6.501,-6.572,11.706
1.663,-6.165,-5.738,11.708
1.226,-5.511,-5.716,11.709
1.174,-5.829,-5.904,11.763
1.126,-6.391,-6.056,11.764
1.111,-7.044,-6.006,11.766
1.189,-7.916,-5.774,11.768
1.047,-8.299,-5.828,11.822
1.084,-8.514,-6.431,11.824
1.289,-9.636,-6.234,11.825
1.016,-9.586,-5.869,11.827
0.44,-8.08,-7.2,11.926
-0.013,-7.407,-7.167,11.928
0.164,-7.318,-7.144,11.93
-0.089,-7.044,-7.111,11.941
-0.758,-7.029,-7.222,11.943
-1.309,-7.004,-7.411,11.952
-0.843,-5.871,-7.914,12.029
-0.6,-6.3,-8.0,12.031
0.371,-7.014,-8.443,12.036
1.757,-8.171,-8.414,12.038
2.471,-7.214,-7.443,12.039
2.314,-4.943,-7.229,12.099
1.314,-5.443,-7.329,12.1
1.229,-6.086,-7.157,12.105
0.186,-5.357,-7.571,12.107
-0.586,-4.743,-7.929,12.109
-0.761,-4.65,-8.522,12.221
0.017,-5.686,-8.339,12.223
0.475,-6.071,-8.091,12.225
0.748,-5.994,-7.992,12.226
0.673,-5.506,-7.864,12.3
0.52,-5.317,-7.893,12.301
0.2,-5.6,-7.7,12.322
0.149,-5.476,-7.655,12.324
0.072,-4.84,-7.938,12.326
0.188,-4.427,-8.277,12.327
0.47,-2.608,-8.745,12.46
0.657,-2.236,-8.615,12.473
1.087,-1.728,-8.07,12.474
1.355,-0.911,-7.868,12.476
1.551,-0.362,-7.874,12.529
1.821,-0.17,-8.119,12.531
1.675,0.519,-8.187,12.532
1.64,0.985,-8.391,12.537
1.498,0.325,-8.453,12.539
1.555,-0.011,-7.268,12.541
2.418,-0.123,-5.652,12.599
1.9,-0.6,-5.2,12.6
0.897,-0.086,-5.962,12.602
0.068,-0.238,-7.846,12.604
-0.499,-0.271,-9.813,12.605
-0.835,-1.378,-10.77,12.703
-1.148,-2.883,-9.996,12.705
-1.861,-3.687,-9.522,12.707
-2.278,-5.026,-8.857,12.709
-2.918,-7.363,-7.925,12.797
-4.575,-7.758,-10.523,12.799
-7.014,-8.489,-14.596,12.801
-6.72,-11.1,-14.04,12.802
-6.839,-10.932,-11.873,12.899
-7.422,-10.337,-9.455,12.901
-7.535,-10.058,-7.743,12.902
-6.319,-9.632,-7.733,12.904
-4.566,-9.311,-8.464,12.907
-3.687,-7.179,-6.312,12.998
-1.874,-5.589,-5.616,13.0
-1.092,-4.053,-7.141,13.005
-1.156,-2.626,-8.091,13.007
1.142,-3.363,-9.005,13.009
1.686,-3.689,-10.196,13.132
2.047,-4.721,-9.168,13.144
2.449,-4.984,-8.854,13.145
0.855,-2.942,-9.017,13.147
-0.142,-3.337,-8.995,13.149
-1.666,-2.089,-9.202,13.225
-2.968,-2.721,-8.796,13.23
-2.809,-3.028,-9.474,13.232
-2.987,-3.509,-9.638,13.233
-2.366,-2.889,-10.302,13.235
-3.813,-2.791,-8.462,13.237
0.109,-3.472,-9.826,13.238
-1.011,-1.794,-9.443,13.324
-0.464,-2.318,-10.981,13.326
1.546,-2.323,-11.129,13.333
1.452,-0.476,-10.562,13.335
2.181,-0.09,-10.005,13.336
3.367,-0.933,-6.233,13.457
8.487,-0.093,-4.033,13.458
6.619,1.69,-5.195,13.467
8.494,1.603,-5.271,13.477
6.427,2.487,-5.333,13.547
4.889,3.006,-4.543,13.549
1.887,3.207,-4.633,13.55
0.019,1.99,-5.495,13.552
-1.245,1.072,-6.276,13.625
-2.368,1.784,-7.562,13.627
-3.11,2.655,-10.048,13.63
-4.228,1.764,-12.762,13.632
-3.411,-0.094,-11.143,13.634
-3.021,-0.79,-9.395,13.636
-1.251,-1.316,-8.948,13.723
-1.129,-1.157,-7.614,13.724
-0.692,-1.269,-8.023,13.726
-0.936,-2.943,-9.691,13.728
0.147,-2.598,-11.64,13.73
-2.423,-3.951,-11.03,13.827
-0.562,-2.426,-9.115,13.829
-4.523,-2.751,-10.43,13.831
-4.377,-4.049,-10.87,13.84
-6.943,-5.438,-12.172,13.842
-8.337,-10.895,-11.358,13.934
-8.354,-11.489,-10.976,13.936
-7.3,-11.9,-10.6,13.937
-5.265,-12.642,-10.357,13.942
-3.148,-12.447,-10.039,13.944
-1.906,-11.211,-8.844,14.023
-2.051,-8.184,-8.354,14.025
-1.289,-3.116,-7.026,14.026
0.616,-2.374,-9.189,14.028
1.398,-1.437,-9.215,14.029
2.055,-5.542,-8.117,14.098
0.816,-6.874,-6.789,14.106
0.544,-3.226,-8.191,14.108
0.954,-3.711,-8.324,14.11
1.765,-4.658,-7.643,14.111
-3.015,-5.147,-8.009,14.197
-0.88,-2.723,-8.526,14.198
-2.548,-3.514,-8.076,14.208
0.274,-4.822,-9.27,14.21
0.448,-7.531,-8.907,14.298
1.328,-6.826,-8.712,14.3
-0.744,-2.379,-9.401,14.301
1.668,-3.337,-8.103,14.303
2.986,-3.787,-9.444,14.305
1.195,-4.523,-9.628,14.423
1.29,-6.347,-11.356,14.426
0.856,-4.71,-9.253,14.431
1.173,-3.55,-8.978,14.432
1.944,-3.09,-10.347,14.434
0.878,-2.892,-10.592,14.524
-0.196,-5.12,-9.22,14.527
-0.598,-6.71,-8.21,14.531
-1.186,-3.469,-8.569,14.534
-1.271,-0.747,-9.347,14.535
-0.316,0.978,-9.122,14.537
0.302,0.19,-8.81,14.623
0.916,-0.478,-7.578,14.632
0.19,-1.151,-8.451,14.634
0.31,-1.949,-8.749,14.635
0.833,-2.667,-9.067,14.637
-1.824,-2.165,-9.576,14.723
-1.11,-3.702,-9.49,14.728
0.475,-2.345,-10.475,14.734
2.518,0.724,-10.718,14.736
3.351,2.99,-8.751,14.737
2.875,2.339,-10.514,14.822
3.157,-1.465,-11.892,14.832
2.47,0.781,-14.221,14.835
2.592,1.745,-11.33,14.837
0.087,1.279,-9.453,14.839
-0.613,0.479,-9.153,14.926
-1.219,0.213,-8.775,14.928
-1.581,-0.513,-9.525,14.929
-1.147,-0.617,-10.889,14.931
0.599,1.81,-12.797,15.023
0.631,2.423,-13.592,15.044
0.982,4.758,-10.647,15.046
1.052,7.535,-6.355,15.048
0.933,7.603,-4.799,15.05
3.1,8.963,-0.816,15.124
2.3,6.989,-3.749,15.132
1.0,3.972,-2.912,15.134
4.6,3.787,2.105,15.136
7.6,6.137,3.216,15.143
7.669,4.524,4.678,15.198
5.804,5.037,4.416,15.2
4.196,2.363,-1.516,15.202
4.094,0.045,-7.324,15.203
2.843,-1.114,-9.929,15.205
3.061,-1.255,-10.351,15.304
1.08,-1.482,-11.316,15.305
0.022,1.99,-12.302,15.307
-4.718,7.327,-10.235,15.309
-4.708,7.033,-10.598,15.397
-3.837,4.433,-11.516,15.407
-4.604,6.867,-10.049,15.408
-8.665,8.4,-13.059,15.41
-9.478,7.233,-15.08,15.412
-1.671,8.937,-14.366,15.499
-6.124,13.424,-8.794,15.5
-3.107,14.074,-12.457,15.505
1.865,13.469,-12.583,15.507
0.214,10.753,-6.187,15.509
-2.009,8.896,-5.044,15.597
-2.255,6.118,-5.082,15.599
-2.173,5.091,-3.409,15.601
-1.982,5.207,-3.413,15.602
-1.273,6.431,-4.029,15.605
-1.145,7.422,-4.138,15.7
-1.245,8.002,-4.578,15.702
-1.0,8.7,-5.1,15.704
-0.164,9.035,-5.485,15.705
0.436,8.535,-6.485,15.707
0.752,8.005,-8.139,15.812
0.853,9.106,-9.775,15.816
1.83,10.961,-12.281,15.819
1.446,5.292,-11.489,15.826
2.215,6.829,-4.072,15.828
1.323,8.469,-2.492,15.902
2.185,8.754,-5.838,15.905
3.562,7.985,-6.646,15.907
3.692,8.377,-5.769,15.909
2.846,8.838,-4.185,15.91
2.416,9.547,-3.255,16.001
1.648,9.245,-3.519,16.002
1.593,8.78,-4.076,16.004
1.804,8.513,-4.916,16.006
2.424,7.671,-3.933,16.007
2.478,7.675,-1.375,16.123
1.808,6.927,-1.327,16.124
2.394,5.429,0.671,16.126
1.763,4.42,1.78,16.128
1.812,3.841,2.859,16.137
2.355,4.192,3.208,16.223
2.171,4.847,3.753,16.225
1.606,6.071,3.229,16.227
0.329,8.453,2.247,16.228
-0.118,8.788,-0.288,16.23
1.602,8.557,-1.557,16.236
1.828,7.984,-3.848,16.371
1.32,8.161,-4.771,16.373
1.755,7.965,-5.243,16.375
1.908,7.624,-5.978,16.377
0.884,9.853,-7.145,16.38
-2.708,10.277,-8.869,16.442
-3.962,9.015,-9.954,16.444
-1.908,8.077,-10.969,16.445
-2.546,7.462,-10.815,16.447
-3.177,7.669,-10.392,16.461
-0.045,6.192,-10.347,16.522
-0.265,5.524,-8.559,16.524
-0.745,5.692,-7.247,16.541
-0.767,6.488,-7.12,16.544
-0.3,6.8,-7.5,16.546
-0.73,7.13,-5.742,16.621
-1.859,6.925,-5.469,16.623
-2.29,6.623,-5.719,16.625
-3.172,6.805,-7.574,16.626
-2.528,6.295,-8.226,16.722
-2.661,4.861,-8.385,16.724
-2.121,5.221,-9.07,16.725
-2.016,7.883,-7.629,16.727
-0.735,10.769,-8.883,16.729
-0.202,11.263,-9.161,16.825
-2.855,5.808,-8.353,16.826
-3.527,5.922,-8.796,16.828
-1.831,7.149,-9.018,16.83
-0.72,7.433,-11.712,16.831
0.88,7.333,-13.012,16.922
1.439,7.498,-13.637,16.924
0.28,4.833,-10.512,16.934
1.637,6.661,-5.098,16.935
2.886,7.343,-5.529,16.937
2.81,7.82,-5.594,17.023
1.662,7.725,-5.533,17.025
0.425,7.35,-5.966,17.027
0.48,7.16,-6.213,17.028
0.264,6.928,-6.205,17.03
-1.11,7.28,-5.606,17.098
-0.694,7.411,-5.615,17.1
0.48,7.56,-5.913,17.102
2.126,7.751,-4.802,17.103
2.028,7.157,-4.609,17.105
0.331,7.892,-4.823,17.196
-0.115,7.654,-4.638,17.197
-0.085,8.046,-3.462,17.208
0.731,8.692,-2.823,17.21
1.053,9.658,0.465,17.357
2.371,9.912,1.002,17.359
4.774,5.922,-2.06,17.372
7.347,7.442,-7.565,17.373
6.284,9.653,-7.045,17.375
5.911,12.935,-7.305,17.443
6.28,12.551,-2.854,17.444
5.47,10.638,-6.114,17.446
4.722,8.091,-1.874,17.448
3.169,5.717,-3.15,17.459
3.56,4.924,-2.073,17.461
2.467,3.733,-1.633,17.522
2.943,3.551,-3.051,17.524
2.694,4.329,-2.529,17.526
1.635,6.024,-0.924,17.527
1.592,8.973,-1.473,17.529
-0.885,10.506,-2.494,17.597
-1.791,10.564,0.364,17.599
-2.237,11.338,0.738,17.6
-1.315,9.894,0.794,17.602
-1.539,8.524,2.024,17.608
-2.144,8.5,2.292,17.722
-0.356,9.7,2.708,17.723
2.048,11.3,2.736,17.725
3.612,12.5,2.384,17.727
5.36,13.7,3.02,17.824
4.944,13.1,2.308,17.825
3.64,12.5,-0.02,17.83
2.892,12.0,-1.156,17.832
2.284,11.6,-1.812,17.834
2.46,10.4,-2.28,17.835
3.747,9.453,-0.471,17.924
3.9,7.8,-0.9,17.926
4.751,8.249,-0.043,17.933
3.692,7.708,0.545,17.934
3.878,7.522,-0.651,17.936
4.029,6.957,1.086,18.022
3.195,7.258,0.814,18.024
2.555,7.618,0.857,18.026
2.388,8.368,-0.229,18.027
2.682,10.226,-1.614,18.037
3.3,11.075,-0.764,18.122
3.9,9.677,-0.221,18.124
2.5,8.968,0.162,18.125
-0.0,9.881,0.966,18.127
-4.4,11.734,5.181,18.129
-9.308,8.077,9.931,18.222
-11.682,9.053,6.458,18.23
-11.556,8.032,4.896,18.232
-13.062,6.815,5.946,18.234
-13.318,9.147,7.442,18.235
-8.156,1.926,13.591,18.354
-6.067,8.179,22.472,18.357
-3.804,5.474,9.629,18.359
-5.269,2.816,7.886,18.362
-5.439,3.813,6.278,18.421
-2.565,7.722,6.33,18.423
0.613,6.496,9.174,18.424
1.37,4.843,11.161,18.427
3.358,3.847,10.142,18.499
4.909,3.577,8.711,18.505
5.097,3.941,8.663,18.506
1.587,3.664,9.753,18.508
0.279,4.374,9.821,18.51
0.692,4.709,8.968,18.511
0.817,2.961,8.965,18.596
0.326,0.991,9.548,18.599
-0.635,0.378,7.97,18.601
0.936,-0.265,7.784,18.606
2.4,1.3,6.4,18.697
3.463,2.979,4.937,18.699
4.009,4.277,4.411,18.701
4.296,4.755,2.884,18.703
4.957,2.461,1.163,18.71
4.018,1.144,2.236,18.809
3.4,0.0,2.8,18.811
3.436,-1.211,3.271,18.813
3.324,0.411,6.049,18.815
1.736,1.789,9.371,18.827
2.053,4.17,10.717,18.902
1.608,6.196,12.288,18.904
-1.681,9.303,10.984,18.907
-2.765,13.623,9.187,18.909
-3.286,15.463,7.849,18.911
-3.423,14.813,6.835,18.997
-2.517,14.453,6.57,19.0
-1.098,13.756,6.254,19.002
-0.068,12.039,5.806,19.005
0.686,10.837,5.451,19.006
2.916,9.222,5.167,19.109
3.431,7.98,5.139,19.111
3.422,6.618,5.055,19.114
3.194,5.404,5.112,19.12
3.51,4.327,5.88,19.121
3.022,3.718,7.455,19.197
3.035,4.01,6.531,19.199
3.553,5.098,5.994,19.2
2.576,3.516,5.049,19.214
1.086,3.143,6.729,19.216
0.439,4.006,6.868,19.34
0.601,4.528,6.827,19.342
0.634,4.395,7.46,19.344
1.031,4.611,7.88,19.346
1.348,6.058,6.81,19.348
1.984,7.181,5.797,19.398
2.151,7.514,6.063,19.4
1.848,8.158,7.21,19.402
1.66,9.266,8.605,19.403
1.503,11.184,8.481,19.405
1.552,11.242,8.19,19.406
1.137,11.051,8.014,19.52
0.855,11.326,7.471,19.522
0.677,10.913,6.635,19.523
0.549,10.986,5.837,19.525
1.649,9.967,5.602,19.624
1.406,8.596,5.588,19.626
1.061,7.259,5.378,19.635
0.439,6.341,4.722,19.643
0.341,6.006,4.918,19.645
-0.357,5.071,5.014,19.646
-0.429,4.283,5.689,19.721
-0.641,3.434,5.921,19.723
-0.868,3.789,6.068,19.725
-1.391,2.977,6.411,19.726
-1.021,4.274,7.921,19.728
0.046,5.298,7.774,19.821
0.125,7.272,8.695,19.823
-0.805,6.968,10.705,19.825
-1.1,3.8,10.3,19.826
0.619,3.754,12.521,19.828
-0.942,2.955,12.507,19.921
-0.359,4.703,9.768,19.922
0.597,4.686,9.362,19.924
2.286,4.232,10.111,19.926
2.102,4.925,10.847,20.022
3.253,5.187,10.521,20.032
4.07,3.408,9.245,20.039
4.545,1.889,9.732,20.04
3.757,1.636,9.015,20.042
1.153,0.465,9.265,20.122
-0.21,1.751,8.951,20.123
-1.092,2.439,9.039,20.125
-0.869,1.357,8.157,20.127
-1.147,3.165,9.065,20.128
0.489,1.202,9.492,20.23
0.638,0.86,9.458,20.235
0.587,0.919,9.825,20.236
1.111,0.798,9.808,20.24
0.617,0.047,8.711,20.241
0.623,-0.204,8.315,20.342
1.13,-0.272,7.987,20.344
1.674,-0.762,7.649,20.347
2.087,-0.481,7.225,20.349
2.304,-0.934,7.136,20.35
1.954,-1.865,6.972,20.422
2.917,-1.497,7.569,20.423
4.447,-1.372,9.311,20.425
6.147,-1.472,9.611,20.427
9.143,-0.225,8.481,20.428
7.645,-4.364,10.645,20.522
7.327,-5.118,14.227,20.523
6.418,-3.845,15.118,20.525
5.473,-1.782,12.373,20.527
4.055,-1.536,8.555,20.528
3.816,-3.489,6.791,20.626
3.811,-2.278,7.822,20.628
2.42,-2.6,7.06,20.629
2.009,-1.722,7.938,20.631
0.42,-2.4,6.06,20.633
1.181,-1.524,5.838,20.698
0.49,-2.038,3.641,20.7
-0.55,-3.262,2.939,20.701
-1.582,-4.252,4.784,20.703
-1.582,-5.252,6.784,20.715
-1.204,-5.105,8.788,20.796
-0.778,-5.416,8.355,20.798
-1.369,-5.614,6.898,20.799
-1.318,-5.724,6.082,20.801
-0.976,-4.735,5.824,20.9
-1.755,-2.351,5.478,20.902
-2.806,-0.541,3.894,20.903
-5.463,-0.173,1.104,20.905
-7.887,-2.026,0.608,20.907
-7.507,-5.791,2.051,21.0
-8.373,-6.709,3.609,21.002
-9.996,-8.755,5.475,21.003
-11.424,-9.845,6.965,21.005
-11.742,-8.973,6.193,21.006
-6.549,-11.897,9.044,21.14
-7.682,-12.564,9.39,21.145
-7.779,-12.757,10.64,21.147
-7.364,-12.327,11.442,21.149
-6.49,-11.579,10.689,21.158
-0.1,-13.823,6.085,21.274
-1.0,-13.385,4.277,21.276
-2.4,-14.515,3.123,21.278
-3.4,-15.977,2.215,21.279
-3.8,-17.646,1.069,21.281
-2.769,-11.871,-13.984,21.283
-2.011,-10.364,-13.479,21.346
-1.171,-8.946,-11.998,21.348
-0.427,-7.378,-10.188,21.349
-0.037,-6.255,-8.46,21.351
0.196,-4.574,-7.713,21.353
-1.19,-3.233,-7.473,21.464
-1.859,-3.0,-7.565,21.467
-2.375,-2.867,-8.369,21.469
-2.406,-3.5,-8.876,21.471
-2.4,-4.0,-9.1,21.476
-2.674,-2.496,-9.549,21.52
-2.674,-2.756,-9.369,21.522
-2.521,-3.207,-9.188,21.533
-3.971,-1.846,-9.223,21.623
-4.219,-2.21,-9.438,21.625
-4.276,-2.398,-9.332,21.63
-4.115,-3.43,-8.904,21.632
-3.856,-3.511,-8.689,21.633
-3.189,-3.178,-8.622,21.635
-3.245,0.458,-8.368,21.721
-2.344,1.238,-8.349,21.723
-1.003,1.761,-8.155,21.726
0.137,1.005,-8.578,21.728
0.531,-0.592,-9.67,21.736
-0.413,-5.438,-8.531,21.796
-1.611,-8.756,-6.511,21.798
-1.119,-11.487,-4.992,21.805
-0.87,-12.058,-5.197,21.807
-0.905,-12.207,-5.751,21.808
2.641,-12.033,-4.937,21.944
2.314,-10.971,-6.343,21.946
0.661,-9.549,-8.555,21.956
4.414,-11.871,-9.743,21.958
5.471,-7.224,-9.533,22.023
3.856,-2.285,-10.299,22.024
2.883,0.206,-9.33,22.026
1.558,-0.653,-9.135,22.028
0.301,-0.934,-9.118,22.031
-0.613,-0.096,-9.384,22.032
-0.202,0.386,-10.198,22.121
-0.718,0.276,-11.082,22.123
-0.28,-0.063,-11.42,22.125
0.588,-0.282,-11.288,22.126
1.261,-0.375,-10.561,22.128
1.277,-1.526,-9.33,22.221
1.364,-1.403,-8.292,22.223
1.158,-1.384,-8.075,22.224
0.758,-1.484,-8.675,22.226
0.249,-1.62,-9.146,22.228
0.889,-3.657,-9.46,22.326
0.713,-4.652,-10.768,22.335
1.162,-5.649,-12.211,22.337
2.037,-5.546,-11.275,22.339
2.508,-4.53,-9.198,22.34
0.7,-3.364,-8.625,22.461
0.0,-2.813,-8.496,22.462
-0.7,-2.558,-8.655,22.464
-1.3,-2.345,-9.258,22.466
-1.6,-2.185,-9.947,22.467
-1.392,-0.691,-10.823,22.521
-0.917,-0.931,-10.95,22.523
-0.126,-0.967,-10.521,22.525
0.491,-0.722,-9.774,22.526
0.792,-0.609,-9.177,22.528
0.681,-1.93,-8.863,22.621
0.256,-2.011,-9.011,22.623
-0.081,-2.17,-9.237,22.624
-0.174,-2.219,-9.552,22.626
-0.196,-2.374,-9.807,22.629
-0.174,-2.719,-9.952,22.721
-0.093,-3.148,-9.815,22.723
-0.004,-3.526,-9.593,22.724
-0.056,-3.689,-9.489,22.726
-0.144,-3.611,-9.411,22.728
1.186,-5.057,-8.571,22.821
1.098,-4.908,-8.582,22.823
1.206,-4.776,-8.555,22.824
1.206,-4.776,-8.555,22.826
1.296,-4.716,-8.463,22.828
1.367,-4.731,-8.306,22.921
1.449,-4.604,-8.141,22.923
1.539,-4.545,-8.049,22.924
1.522,-4.41,-7.902,22.926
1.541,-4.337,-7.967,22.93
1.136,-5.495,-7.261,23.021
1.137,-5.571,-7.326,23.023
1.108,-5.71,-7.318,23.029
1.11,-5.862,-7.448,23.03
1.142,-5.952,-7.65,23.04
1.588,-4.949,-8.49,23.122
1.596,-5.016,-8.563,23.123
1.622,-5.01,-8.702,23.125
1.631,-5.078,-8.776,23.127
1.559,-5.063,-8.933,23.128
1.578,-4.99,-8.998,23.224
1.739,-4.845,-9.249,23.226
1.678,-4.69,-9.398,23.228
1.659,-4.763,-9.333,23.229
2.186,-4.557,-9.871,23.322
2.484,-3.965,-10.653,23.323
2.986,-3.457,-11.471,23.325
3.727,-3.094,-12.539,23.326
3.527,-2.394,-13.339,23.328
3.355,-2.48,-14.096,23.431
3.794,-4.324,-13.445,23.438
5.006,-5.376,-12.755,23.439
6.316,-5.335,-12.647,23.441
6.847,-6.012,-11.422,23.458
1.603,-11.801,-6.563,23.525
1.719,-11.506,-4.979,23.526
2.022,-10.707,-3.742,23.529
2.153,-9.384,-3.853,23.532
2.297,-8.499,-3.037,23.534
-1.001,-8.415,-1.317,23.621
-0.892,-7.983,-1.268,23.622
-0.848,-7.514,-1.009,23.624
-0.067,-7.405,-0.839,23.63
-0.252,-7.186,0.109,23.632
-1.636,-7.025,-0.4,23.721
-1.509,-7.417,-0.4,23.723
-0.566,-7.419,0.3,23.724
0.749,-7.072,-0.1,23.734
1.374,-7.508,-0.8,23.737
0.1,-7.6,-0.8,23.822
-0.008,-7.887,-0.171,23.824
0.643,-7.619,0.54,23.826
1.09,-7.859,0.586,23.836
1.01,-8.341,0.814,23.846
0.825,-8.866,0.955,23.921
1.206,-9.384,1.928,23.922
1.346,-9.112,2.204,23.924
1.412,-7.969,1.656,23.926
1.404,-9.356,0.385,23.934
0.304,-9.314,0.814,24.046
2.541,-9.094,0.894,24.053
4.253,-8.935,1.335,24.055
-0.682,-9.312,1.512,24.057
0.939,-9.037,1.037,24.058
2.19,-9.116,1.516,24.168
1.812,-9.341,1.841,24.173
1.637,-9.48,1.48,24.175
1.388,-9.559,1.659,24.176
1.986,-9.602,1.802,24.183
1.737,-9.78,1.88,24.184
0.52,-9.741,1.641,24.242
0.324,-9.67,1.77,24.253
0.479,-9.652,2.152,24.255
0.422,-9.356,2.056,24.322
0.212,-9.385,1.985,24.323
0.309,-9.064,1.564,24.325
0.185,-9.094,2.794,24.327
3.238,-9.969,2.569,24.334
1.612,-9.385,1.785,24.336
-0.628,-9.1,0.704,24.495
0.232,-9.3,-0.276,24.497
-0.112,-9.4,2.116,24.503
0.888,-9.7,1.616,24.504
0.836,-9.7,2.152,24.506
0.86,-9.5,1.52,24.545
0.6,-9.3,1.7,24.546
1.36,-9.6,2.52,24.548
1.236,-9.9,2.452,24.549
1.316,-9.3,2.012,24.551
0.932,-9.3,2.124,24.623
1.044,-9.6,2.508,24.634
1.1,-9.7,2.7,24.636
1.04,-9.5,1.78,24.722
0.92,-9.4,2.44,24.724
0.908,-9.5,2.756,24.725
0.784,-9.5,2.688,24.732
0.58,-9.8,3.06,24.733
1.04,-9.0,1.78,24.735
0.344,-8.8,2.608,24.739
0.328,-8.9,2.196,24.796
-0.316,-9.6,2.488,24.798
0.456,-9.9,2.992,24.799
1.176,-10.6,1.532,24.801
1.796,-9.8,-0.628,24.802
0.9,-9.9,1.0,24.919
0.4,-9.9,0.9,24.921
0.3,-9.8,0.3,24.923
0.2,-9.7,0.1,24.998
0.2,-9.6,-0.4,25.0
0.1,-9.5,-0.5,25.009
0.1,-9.6,0.1,25.012
-0.1,-9.7,0.7,25.014
-0.4,-9.9,0.9,25.015
-0.4,-9.7,0.8,25.096
-0.3,-9.9,0.9,25.097
-0.3,-9.9,1.1,25.099
-0.4,-9.9,1.3,25.1
-0.4,-9.8,1.3,25.197
-0.4,-9.8,1.1,25.199
-0.6,-9.8,1.1,25.2
-0.5,-9.9,1.2,25.202
-0.3,-9.8,0.9,25.204
-0.2,-9.7,0.5,25.295
-0.1,-9.6,0.3,25.297
0.1,-9.5,0.0,25.298
0.1,-9.5,0.1,25.3
0.1,-9.7,0.5,25.301
1.289,-9.622,0.722,25.428
1.233,-9.433,1.233,25.439
1.01,-9.771,1.471,25.441
-0.5,-9.2,3.6,25.442
3.307,-9.849,1.749,25.444
3.698,-10.286,0.486,25.545
-1.299,-9.607,2.607,25.546
-0.067,-9.733,2.533,25.548
0.535,-9.947,2.247,25.55
1.165,-9.553,2.053,25.555
1.697,-9.379,2.379,25.556
1.317,-8.92,1.62,25.621
1.176,-9.23,0.33,25.623
0.954,-9.675,1.175,25.625
1.149,-9.346,1.446,25.626
1.205,-9.135,1.335,25.628
0.645,-9.018,1.818,25.694
0.547,-8.932,1.932,25.696
1.346,-9.325,2.125,25.698
1.166,-9.86,2.46,25.699
1.836,-9.655,1.655,25.709
0.276,-9.8,2.732,25.813
0.96,-9.9,2.22,25.814
-0.356,-9.5,2.708,25.816
-1.025,-10.123,7.523,25.818
4.016,-9.213,-1.187,25.937
3.958,-8.803,-2.597,25.939
-0.2,-9.3,0.3,25.94
-0.8,-9.4,0.3,25.942
0.4,-9.8,0.2,25.947
0.0,-10.0,0.8,26.039
-0.5,-9.9,0.6,26.041
-0.3,-9.9,0.0,26.044
-0.3,-9.7,-0.2,26.046
-0.3,-9.8,-0.3,26.047
-0.2,-9.7,-0.2,26.058
-0.1,-9.8,0.0,26.138
-0.3,-9.9,0.3,26.144
-0.4,-10.0,0.4,26.146
-0.4,-10.0,0.3,26.156
-0.4,-10.0,0.0,26.158
-0.5,-9.8,-0.2,26.252
-0.4,-9.8,0.1,26.253
-0.2,-9.7,0.1,26.255
-0.1,-11.3,0.1,26.26
-0.5,-9.8,-0.2,26.264
