vertical_Accel_x,vertical_Accel_y,vertical_Accel_z,accel_time_list
0.631,-9.619,1.119,0.0
0.352,-9.661,1.261,0.002
0.478,-9.744,1.344,0.004
0.195,-7.965,1.165,0.005
0.982,-9.473,1.573,0.093
-0.055,-9.918,1.018,0.094
-0.137,-9.938,1.838,0.096
1.177,-9.537,0.737,0.101
0.268,-9.574,1.474,0.103
0.352,-9.761,1.161,0.203
0.772,-9.802,1.202,0.209
0.617,-9.62,1.02,0.211
0.589,-9.522,0.922,0.212
0.533,-9.633,1.133,0.215
0.464,-9.645,1.345,0.293
0.449,-9.646,1.246,0.295
0.435,-9.647,1.147,0.296
0.464,-9.745,1.245,0.298
0.38,-9.759,1.359,0.3
0.282,-9.773,1.373,0.393
0.352,-9.561,1.361,0.395
0.337,-9.462,1.362,0.396
0.323,-9.363,1.363,0.398
0.393,-9.151,1.351,0.4
0.365,-8.853,1.453,0.499
0.21,-8.371,1.571,0.502
0.252,-7.761,1.761,0.504
0.377,-7.037,1.937,0.506
0.474,-6.316,1.916,0.511
1.06,-5.42,1.8,0.571
0.768,-4.776,1.4,0.572
0.504,-4.228,1.2,0.574
0.144,-3.708,0.5,0.575
-0.656,-3.108,-0.2,0.577
-0.563,-3.78,-1.98,0.691
-1.382,-5.312,-5.712,0.692
-4.224,-5.618,-8.618,0.694
-4.518,-5.988,-7.988,0.696
-3.352,-6.381,-5.053,0.795
-5.111,-6.674,-2.384,0.796
-8.335,-7.183,-0.758,0.798
-10.446,-7.244,0.189,0.799
-12.133,-6.808,-0.121,0.801
-14.149,-7.006,-1.716,0.803
-9.133,-14.867,-4.733,0.899
-9.53,-15.648,-7.13,0.9
-8.244,-15.522,-9.244,0.907
-7.348,-13.241,-12.148,0.909
-4.867,-9.073,-15.202,0.91
-0.256,0.122,-15.956,0.999
-0.758,-0.589,-13.638,1.0
-0.547,-2.133,-11.827,1.002
-0.173,-3.367,-10.713,1.004
0.022,-3.389,-10.678,1.005
2.002,-1.402,-10.814,1.093
2.655,-1.155,-10.584,1.099
3.325,-0.725,-10.078,1.1
3.704,0.296,-9.727,1.11
3.922,1.378,-9.551,1.111
2.49,1.421,-9.143,1.193
2.568,0.764,-8.117,1.195
2.47,0.061,-8.043,1.197
2.338,0.023,-8.574,1.198
3.376,1.296,-9.032,1.2
3.47,1.295,-9.74,1.295
3.457,1.376,-10.49,1.297
3.251,1.575,-10.998,1.298
2.859,1.61,-11.121,1.3
2.505,1.684,-11.027,1.308
2.117,1.586,-10.711,1.393
1.783,1.614,-10.289,1.399
1.655,0.145,-10.184,1.401
0.935,-0.335,-10.147,1.402
0.38,-0.98,-10.663,1.404
-0.935,-4.958,-9.739,1.493
-0.43,-5.38,-9.609,1.495
0.747,-5.889,-9.915,1.505
2.545,-6.181,-10.387,1.507
4.137,-5.946,-10.275,1.514
0.349,-7.259,-10.104,1.592
-0.686,-6.771,-10.143,1.594
-1.68,-6.316,-9.618,1.596
-2.69,-6.008,-8.959,1.597
-2.465,-6.991,-7.404,1.693
-2.7,-6.5,-7.0,1.695
-2.783,-6.296,-6.752,1.696
-3.738,-5.564,-6.768,1.698
-3.524,-5.872,-6.965,1.7
-3.157,-6.366,-7.011,1.793
-2.848,-6.705,-7.21,1.795
-2.262,-6.516,-7.172,1.796
-1.825,-5.092,-7.655,1.802
-1.851,-5.581,-6.543,1.804
-1.565,-4.445,-6.724,1.893
-1.427,-4.227,-6.418,1.894
-1.433,-4.173,-6.062,1.904
-1.722,-4.382,-6.175,1.906
-1.873,-4.773,-6.482,1.907
-1.579,-4.414,-7.874,1.993
-1.876,-4.916,-8.928,1.995
-2.73,-5.18,-10.165,1.997
-3.462,-6.058,-12.777,1.998
-3.631,-7.213,-16.148,2.0
0.193,-7.652,-18.485,2.093
-0.03,-6.807,-18.041,2.094
-0.315,-5.704,-15.87,2.096
-0.035,-3.189,-13.695,2.098
-0.133,-4.062,-11.001,2.099
1.749,-3.314,-9.383,2.193
0.628,-3.59,-9.298,2.194
0.167,-3.767,-9.833,2.198
0.064,-3.595,-10.399,2.202
0.092,-3.41,-10.242,2.204
0.057,-0.024,-10.29,2.293
0.091,0.649,-9.312,2.303
0.434,1.172,-8.222,2.304
0.785,1.748,-6.82,2.306
1.128,2.271,-5.73,2.308
0.59,3.759,-4.71,2.393
0.824,3.939,-4.076,2.395
0.525,3.954,-3.875,2.397
0.527,3.982,-4.073,2.402
0.662,4.263,-4.738,2.403
0.991,5.878,-4.026,2.492
1.545,6.325,-4.466,2.494
1.887,6.823,-5.438,2.495
1.929,7.508,-7.213,2.497
2.033,8.562,-8.601,2.499
1.911,9.35,-9.568,2.593
1.077,9.374,-10.57,2.594
-0.356,9.512,-11.869,2.596
-1.487,9.577,-12.862,2.598
-1.665,9.089,-13.195,2.604
2.296,1.8,-15.372,2.693
2.632,1.2,-14.024,2.694
2.416,1.1,-12.212,2.696
2.176,-0.597,-11.282,2.701
1.795,-0.012,-11.171,2.703
1.162,-3.101,-10.984,2.793
0.957,-3.149,-10.674,2.794
0.967,-3.093,-10.013,2.799
1.214,-3.137,-9.469,2.801
0.369,-3.556,-8.751,2.803
0.471,-5.614,-6.643,2.868
0.796,-5.316,-6.063,2.869
0.863,-4.847,-5.669,2.871
0.645,-4.42,-5.404,2.872
0.239,-4.045,-5.249,2.874
-2.149,-3.116,-5.39,2.966
-2.375,-2.908,-5.745,2.972
-2.773,-2.839,-6.325,2.974
-2.76,-1.493,-7.813,3.093
-3.155,-1.63,-9.402,3.107
-2.941,-1.54,-10.369,3.109
-2.511,-1.459,-10.804,3.111
-3.02,-1.753,-12.144,3.113
-3.201,-2.033,-12.282,3.195
-3.579,-2.414,-12.174,3.2
-3.893,-2.871,-11.925,3.202
-3.162,-3.358,-11.177,3.205
-1.616,-3.523,-10.415,3.206
0.625,-3.383,-9.946,3.208
0.394,-3.196,-10.093,3.21
-0.466,-2.217,-10.006,3.293
-1.8,-3.3,-10.2,3.294
-2.551,-3.874,-10.54,3.296
-2.53,-3.19,-11.715,3.298
-2.447,-3.184,-11.945,3.299
-0.111,-4.65,-11.068,3.367
0.174,-3.867,-10.221,3.369
0.584,-2.917,-9.453,3.37
0.875,-2.053,-8.424,3.38
1.679,1.268,-7.553,3.466
1.511,1.316,-7.074,3.468
1.396,1.228,-6.875,3.469
1.484,2.0,-6.561,3.475
1.273,1.9,-6.488,3.569
1.028,1.8,-6.925,3.571
0.996,1.8,-7.434,3.573
1.346,1.6,-7.79,3.574
1.881,1.5,-8.021,3.582
1.2,1.8,-8.3,3.668
1.3,2.2,-8.5,3.67
1.2,2.5,-9.0,3.672
0.4,2.7,-9.7,3.673
0.0,3.2,-11.9,3.675
2.017,3.6,-13.552,3.792
2.626,4.0,-15.085,3.794
2.541,4.7,-16.711,3.795
2.527,4.7,-16.612,3.797
1.912,3.8,-15.786,3.806
3.323,-0.792,-15.269,3.894
3.477,-1.308,-14.331,3.896
3.808,-0.531,-11.923,3.898
2.808,0.869,-10.223,3.899
0.346,-1.485,-10.238,3.904
-5.108,-1.969,-12.477,3.906
-6.235,-8.974,-13.266,3.993
-7.439,-9.997,-12.564,3.995
-7.37,-12.734,-9.245,3.996
-2.649,-13.83,-7.677,3.998
1.998,-8.44,-0.747,4.0
-0.143,-7.214,-3.929,4.093
0.714,-3.789,-6.837,4.101
1.257,0.906,-8.269,4.103
-0.033,2.033,-9.833,4.105
-2.92,0.914,-8.796,4.106
0.353,5.431,-8.237,4.197
0.178,5.876,-8.131,4.199
0.31,6.502,-7.522,4.216
0.41,6.002,-7.522,4.218
0.71,4.502,-7.522,4.22
0.688,0.741,-8.241,4.293
0.604,-0.714,-8.32,4.295
0.408,-1.127,-8.339,4.296
0.167,-0.733,-8.633,4.298
-0.546,-1.717,-8.575,4.3
-2.635,-3.804,-7.998,4.391
-2.837,-4.01,-8.945,4.393
-3.21,-4.631,-10.135,4.394
-3.777,-6.345,-10.532,4.401
-4.075,-7.161,-11.215,4.402
-4.186,-9.557,-9.829,4.492
-3.9,-10.0,-9.6,4.493
-3.486,-10.057,-8.829,4.495
-2.757,-10.271,-8.186,4.501
-2.386,-11.057,-7.329,4.504
-3.864,-11.179,-5.491,4.593
-2.833,-10.294,-5.983,4.609
-1.989,-9.202,-6.172,4.611
-2.207,-8.062,-6.327,4.613
-2.97,-7.433,-6.043,4.614
-0.975,-8.681,-4.413,4.692
-1.2,-8.8,-4.2,4.693
-1.415,-9.096,-4.123,4.695
-0.906,-8.974,-3.658,4.697
-0.204,-8.349,-2.806,4.698
0.442,-7.36,-2.138,4.792
0.625,-6.681,-1.613,4.793
0.096,-6.349,-0.906,4.795
0.338,-6.009,-0.743,4.797
0.964,-6.066,-1.804,4.798
1.916,-6.184,-3.057,4.891
1.753,-6.747,-3.829,4.893
0.865,-7.435,-4.047,4.894
0.092,-8.108,-3.822,4.896
-0.347,-8.747,-3.729,4.993
-0.196,-9.496,-3.539,5.002
0.486,-10.314,-3.463,5.004
1.084,-10.816,-3.443,5.006
1.639,-11.061,-3.692,5.02
3.641,-10.612,-4.541,5.092
3.914,-10.437,-4.614,5.094
3.963,-11.227,-4.263,5.096
3.282,-12.324,-5.182,5.097
2.186,-13.263,-7.286,5.099
2.404,-14.728,-7.192,5.167
1.997,-14.423,-7.225,5.169
1.567,-12.75,-6.439,5.176
3.085,-11.823,-4.3,5.178
2.562,-11.608,-3.4,5.18
0.114,-12.337,-0.386,5.291
0.416,-12.257,0.216,5.293
0.722,-11.716,0.522,5.294
0.7,-10.6,0.4,5.297
-1.2,-9.254,2.231,5.393
-1.0,-8.569,2.054,5.404
-0.8,-7.869,1.654,5.405
-1.0,-7.538,1.408,5.407
-1.1,-7.392,1.238,5.41
-1.4,-7.523,1.185,5.412
-3.024,-7.544,0.338,5.492
-3.422,-8.222,0.289,5.494
-3.38,-9.3,0.16,5.495
-3.293,-9.933,0.053,5.503
-3.249,-10.389,0.076,5.505
-5.092,-10.369,-1.104,5.592
-5.118,-10.994,-0.841,5.594
-4.678,-11.141,-0.461,5.595
-3.676,-10.908,-0.112,5.601
-4.662,-10.879,-1.704,5.603
-5.986,-10.277,-1.631,5.696
-7.381,-10.17,-1.242,5.698
-7.729,-10.186,-0.557,5.699
-5.643,-10.189,0.034,5.701
-3.519,-10.27,0.322,5.711
-2.324,-9.805,3.348,5.791
-2.873,-9.387,3.967,5.793
-3.313,-8.807,4.267,5.794
-3.514,-8.043,4.429,5.796
-3.587,-7.393,4.733,5.798
-2.4,-7.4,4.3,5.894
-2.227,-7.067,3.587,5.896
-1.689,-7.189,3.156,5.898
-1.276,-7.256,2.762,5.9
-1.069,-7.389,2.316,5.902
-0.032,-7.952,-0.813,5.992
-0.425,-8.28,-1.637,5.994
-1.227,-8.843,-2.244,6.0
-1.13,-9.888,-2.505,6.002
-0.582,-11.411,-2.986,6.004
2.2,-11.9,-7.6,6.068
4.154,-13.141,-7.395,6.07
3.47,-13.303,-7.473,6.072
2.865,-13.249,-6.514,6.087
2.384,-12.938,-6.022,6.089
3.204,-12.447,-6.087,6.19
5.022,-12.456,-4.144,6.192
7.457,-11.671,-1.426,6.194
6.595,-12.269,-1.08,6.27
5.248,-13.161,-1.494,6.273
4.613,-13.641,-1.653,6.275
4.019,-12.599,-1.677,6.277
3.36,-11.249,-1.738,6.279
2.881,-10.601,-1.723,6.284
2.889,-9.911,-1.956,6.286
1.206,-9.659,-0.594,6.39
1.871,-9.406,-0.529,6.392
2.453,-9.181,1.607,6.393
1.505,-9.262,2.164,6.468
1.136,-9.533,2.147,6.475
0.701,-9.312,2.193,6.476
-0.024,-9.215,2.266,6.478
-0.649,-9.106,2.346,6.488
-1.189,-8.936,2.521,6.49
-2.792,-7.433,5.127,6.591
-2.853,-7.488,5.478,6.592
-2.7,-7.6,5.8,6.594
-2.68,-7.882,5.816,6.596
-4.926,-6.852,7.081,6.7
-5.389,-7.878,8.122,6.702
-5.622,-9.044,8.656,6.704
-5.822,-10.244,9.056,6.706
-5.856,-10.911,8.989,6.708
-5.585,-10.17,8.196,6.709
-7.543,-11.514,2.229,6.8
-5.616,-10.824,2.549,6.801
-5.369,-10.704,3.208,6.803
-5.498,-10.347,2.994,6.805
-3.245,-10.001,1.71,6.807
-2.228,-9.05,1.695,6.897
-1.71,-8.598,1.381,6.898
-1.439,-8.284,1.038,6.912
-1.679,-7.604,1.238,6.914
-2.19,-7.102,1.819,6.916
-0.664,-6.904,3.887,6.996
-0.387,-6.819,4.243,7.002
0.436,-6.404,4.487,7.004
0.738,-5.857,4.628,7.006
0.7,-5.5,4.6,7.008
1.52,-5.0,4.64,7.103
1.391,-5.086,4.383,7.104
1.388,-5.29,4.142,7.106
1.412,-5.71,3.958,7.108
1.529,-6.414,4.057,7.111
2.08,-8.365,2.437,7.192
2.784,-9.702,2.015,7.193
2.96,-10.918,1.681,7.195
2.847,-11.569,1.568,7.197
2.349,-11.794,1.854,7.198
3.781,-10.571,6.235,7.292
3.146,-11.601,8.072,7.301
2.295,-12.135,10.396,7.303
1.842,-12.18,12.151,7.305
2.535,-12.17,12.963,7.306
6.347,-5.465,16.471,7.391
6.933,-5.422,15.143,7.392
6.541,-5.26,12.243,7.394
5.919,-5.179,9.314,7.396
5.181,-6.121,8.786,7.397
1.908,-7.408,10.355,7.491
0.784,-7.684,10.39,7.493
-0.145,-7.655,10.784,7.495
-0.902,-7.398,11.086,7.497
-1.235,-6.465,10.053,7.498
-3.4,-2.8,9.2,7.596
-2.5,-1.9,7.8,7.602
-1.6,-1.3,7.0,7.603
-0.5,-1.4,7.0,7.605
-0.4,-2.0,8.2,7.607
-3.833,-0.167,9.433,7.693
-5.512,-0.488,10.982,7.695
-6.984,-0.416,11.39,7.697
-8.186,0.186,11.504,7.698
-9.282,0.982,12.676,7.7
-11.078,-1.876,11.796,7.791
-10.156,-1.311,11.511,7.794
-9.736,-1.167,9.894,7.801
-8.109,-1.202,9.383,7.803
-6.574,-3.172,8.813,7.804
-6.433,-4.245,6.614,7.892
-5.767,-4.649,6.663,7.899
-6.9,-3.429,6.218,7.9
-8.933,-0.022,4.22,7.902
-8.767,3.345,3.786,7.904
-5.635,2.153,6.665,7.991
-3.553,2.129,8.547,7.993
-2.747,0.971,8.353,7.995
-3.022,0.449,7.545,7.996
-4.29,0.169,7.043,8.006
-3.281,1.652,8.647,8.109
-3.028,1.173,9.879,8.111
-2.713,1.699,10.668,8.113
-3.147,2.821,11.032,8.114
-3.02,4.14,11.9,8.116
5.325,4.625,12.878,8.192
6.218,4.318,14.224,8.194
6.406,3.406,15.741,8.196
6.337,2.237,16.761,8.199
9.909,0.036,14.164,8.292
9.645,0.842,12.938,8.293
8.827,1.329,12.031,8.295
7.427,1.689,11.051,8.296
5.909,1.756,10.704,8.298
7.133,-0.339,11.19,8.391
6.9,-0.782,12.729,8.397
6.767,-1.325,12.969,8.399
7.033,-1.522,11.92,8.4
7.0,-1.782,9.929,8.41
4.484,0.606,10.226,8.494
4.727,0.489,10.357,8.496
4.918,0.653,10.911,8.497
5.005,0.598,11.691,8.5
4.797,0.561,12.045,8.502
0.818,2.942,12.389,8.591
0.209,2.871,11.644,8.593
-0.284,2.824,10.978,8.595
-0.491,2.771,10.144,8.596
-2.061,2.444,9.383,8.598
-3.562,1.898,8.511,8.691
-3.502,1.818,8.111,8.693
-3.547,1.673,7.833,8.695
-3.633,1.567,7.867,8.696
-3.973,1.687,8.867,8.7
-6.804,0.078,8.873,8.791
-7.184,0.19,9.706,8.796
-7.047,0.192,10.645,8.798
-6.033,-0.08,10.988,8.815
-5.651,-0.531,11.018,8.816
-4.117,-2.316,10.329,8.892
-3.841,-1.892,9.835,8.894
-3.81,-1.557,9.453,8.896
-3.968,-1.099,9.292,8.899
-4.376,-1.124,9.994,8.905
-3.689,-1.078,10.822,8.991
-2.707,-0.76,11.077,8.993
-2.778,-0.556,10.544,8.999
-3.566,0.132,9.541,9.0
-4.326,0.893,8.657,9.002
-2.494,5.542,7.834,9.093
-2.145,5.532,7.325,9.095
-1.632,5.289,7.132,9.097
-1.0,5.0,7.0,9.1
-0.533,4.516,7.193,9.102
1.15,2.993,8.451,9.191
0.904,2.746,9.212,9.197
0.696,2.154,9.688,9.212
0.453,1.752,9.86,9.215
0.263,1.717,10.089,9.216
3.249,0.249,10.243,9.313
4.024,0.524,10.365,9.314
4.771,0.771,10.394,9.316
5.159,0.859,11.012,9.318
5.31,0.91,11.169,9.319
5.123,-0.008,10.969,9.392
4.738,0.154,10.515,9.394
4.231,0.423,10.292,9.396
3.654,0.815,10.062,9.398
2.938,1.154,10.215,9.4
4.058,3.961,9.276,9.491
3.665,4.251,9.746,9.493
3.681,4.513,10.108,9.495
3.765,4.851,10.246,9.496
4.254,5.395,10.935,9.498
4.676,7.594,10.6,9.591
5.476,7.794,10.8,9.606
6.32,8.055,11.367,9.608
6.767,8.067,11.667,9.61
6.422,7.58,11.133,9.611
1.935,10.345,9.504,9.693
1.387,9.173,9.062,9.695
0.571,8.109,8.913,9.696
-0.42,7.7,8.94,9.698
-1.34,7.7,8.88,9.7
-2.54,6.72,9.2,9.791
-2.755,6.764,9.155,9.796
-2.375,6.924,9.055,9.797
-1.382,7.145,8.982,9.799
-0.838,7.315,9.218,9.801
-4.161,7.846,6.379,9.891
-4.237,7.421,6.263,9.893
-4.529,7.057,6.411,9.895
-4.88,6.84,6.4,9.897
-4.998,6.567,6.442,9.996
-4.912,6.329,6.568,10.006
-4.722,6.393,6.558,10.008
-4.68,6.24,6.4,10.01
-4.625,5.992,5.895,10.011
-5.854,5.598,4.171,10.122
-5.721,5.345,4.035,10.124
-5.525,5.214,4.102,10.126
-5.504,4.152,5.517,10.127
-5.452,4.126,5.709,10.129
-4.124,4.514,6.706,10.218
-3.922,4.596,6.755,10.224
-3.796,4.564,6.699,10.226
-3.72,4.678,6.805,10.227
-3.757,4.917,6.764,10.231
-3.754,5.29,6.739,10.24
-3.84,5.456,6.81,10.244
-3.412,6.923,5.899,10.316
-3.533,7.366,6.181,10.318
-3.459,7.818,6.353,10.319
-3.125,8.15,6.615,10.338
-2.965,8.43,7.203,10.34
-1.864,11.323,4.091,10.415
-1.494,12.051,4.204,10.417
-1.085,13.136,4.543,10.418
-3.491,13.785,4.34,10.42
-2.574,11.756,-8.869,10.517
-2.547,11.272,-10.059,10.519
-2.811,11.014,-10.464,10.521
-2.9,10.72,-10.54,10.522
-2.421,9.307,-12.888,10.524
-3.835,-4.763,-15.188,10.616
-3.162,-5.223,-11.813,10.618
-3.198,-4.224,-10.434,10.621
-1.955,-3.358,-9.782,10.623
-0.215,-2.868,-9.395,10.624
-1.61,-0.948,-9.295,10.691
-1.088,0.542,-9.576,10.692
-0.151,1.703,-9.014,10.694
0.789,3.123,-9.314,10.704
1.278,3.91,-9.319,10.705
2.433,5.537,-7.751,10.789
2.867,5.833,-7.267,10.79
2.867,5.575,-6.902,10.792
3.207,3.405,-7.748,10.797
3.539,2.728,-7.786,10.891
3.673,1.166,-8.017,10.892
3.858,-0.173,-8.336,10.894
4.09,-0.564,-8.282,10.896
5.299,0.185,-8.407,10.898
7.231,1.893,-8.753,11.016
8.646,3.333,-8.834,11.021
9.113,3.609,-8.095,11.026
9.105,2.975,-7.663,11.036
8.296,2.34,-7.13,11.038
6.276,1.312,-7.592,11.092
5.739,0.831,-7.18,11.094
5.963,0.918,-6.688,11.102
6.38,1.21,-6.727,11.112
6.022,1.339,-6.241,11.114
5.908,1.496,-5.769,11.115
4.7,1.5,-6.2,11.211
4.567,0.667,-6.033,11.213
4.5,0.5,-6.2,11.215
3.767,0.267,-6.333,11.216
1.129,-1.357,-6.486,11.293
1.208,-2.188,-6.424,11.299
0.892,-1.512,-6.976,11.301
-0.347,-2.508,-6.441,11.302
-0.189,-3.234,-6.864,11.304
-0.767,-2.733,-8.067,11.391
-2.048,-3.252,-7.459,11.393
-2.344,-3.856,-7.678,11.394
-2.874,-4.426,-8.13,11.396
-2.589,-4.711,-9.056,11.398
-1.978,-4.438,-9.731,11.491
-2.133,-2.993,-9.953,11.493
-1.856,-2.996,-9.802,11.504
-1.289,-3.609,-9.596,11.506
1.082,-3.463,-9.425,11.617
1.083,-3.995,-8.918,11.619
1.009,-3.784,-8.934,11.625
0.835,-4.442,-8.657,11.627
0.505,-4.258,-8.463,11.628
0.522,-3.863,-8.345,11.717
0.38,-3.2,-8.34,11.719
-0.162,-2.937,-8.635,11.72
0.164,-4.226,-8.351,11.722
0.08,-4.7,-7.94,11.723
-0.645,-4.342,-8.017,11.728
-1.289,-4.616,-8.026,11.73
-1.678,-4.863,-8.245,11.815
-2.0,-4.9,-8.5,11.821
-2.016,-5.426,-9.111,11.823
-2.201,-4.868,-8.407,11.824
-3.002,-3.637,-8.515,11.826
-1.155,-4.175,-8.908,11.914
-1.714,-4.169,-9.102,11.916
-1.98,-2.502,-11.169,11.917
-0.143,-4.116,-11.149,11.919
-0.224,-3.218,-11.818,12.018
0.161,-3.796,-10.263,12.021
-0.484,-3.722,-8.455,12.023
-0.784,-3.822,-7.955,12.026
-0.545,-4.325,-8.092,12.034
-0.308,-4.139,-8.873,12.09
0.284,-4.478,-9.145,12.094
0.427,-4.563,-9.096,12.097
0.196,-4.42,-8.786,12.104
0.049,-4.455,-8.622,12.105
0.11,-4.151,-8.684,12.204
0.173,-3.937,-8.704,12.211
0.024,-3.882,-8.582,12.213
0.014,-3.731,-8.498,12.214
-0.122,-3.708,-8.675,12.289
0.014,-3.731,-8.498,12.299
-0.125,-3.827,-8.461,12.301
-0.275,-4.073,-8.039,12.302
-0.204,-3.92,-8.186,12.304
-0.194,-4.071,-8.271,12.391
0.38,-3.898,-8.631,12.393
0.788,-3.759,-8.359,12.395
0.512,-4.041,-8.241,12.398
-0.153,-3.765,-7.865,12.4
-0.253,-0.837,-8.931,12.49
0.153,-0.563,-9.469,12.492
-1.902,-1.024,-10.12,12.493
-0.731,-0.867,-9.306,12.499
0.076,-1.694,-9.545,12.501
-1.235,-3.578,-8.67,12.591
-0.265,-3.622,-8.93,12.592
0.63,-5.857,-9.139,12.594
2.226,-6.291,-8.848,12.596
3.457,-5.948,-8.587,12.597
1.604,-3.849,-8.594,12.69
-2.396,-1.349,-8.994,12.692
0.815,-4.796,-7.677,12.693
-0.4,-4.6,-7.8,12.695
-0.777,-5.094,-8.766,12.696
-0.051,-6.638,-9.626,12.804
0.296,-7.551,-10.206,12.806
0.813,-7.372,-10.23,12.808
1.113,-6.272,-9.73,12.814
3.387,-4.504,-8.626,12.816
2.387,-3.304,-8.326,12.89
1.752,-2.283,-8.096,12.892
1.243,-1.752,-7.813,12.893
0.735,-0.722,-7.23,12.895
0.4,-0.2,-6.3,12.897
0.491,0.33,-6.317,12.99
0.561,0.687,-6.578,12.991
0.883,0.661,-6.835,12.993
1.257,0.252,-6.987,12.995
1.709,-0.53,-7.783,13.004
1.152,-2.947,-7.939,13.115
0.76,-4.1,-8.18,13.116
0.874,-5.511,-7.884,13.118
0.664,-6.226,-8.851,13.12
-1.718,-6.863,-10.025,13.121
-2.678,-7.863,-8.745,13.216
-3.493,-8.421,-7.948,13.218
-4.187,-9.279,-9.812,13.219
-6.496,-9.526,-12.471,13.221
-6.237,-8.595,-12.658,13.222
-4.665,-9.042,-12.657,13.224
-4.572,-9.853,-12.501,13.315
-1.6,-9.0,-11.2,13.316
-2.407,-5.279,-7.852,13.318
-1.474,-4.589,-6.816,13.32
-0.052,-3.753,-7.361,13.321
0.718,-4.137,-8.475,13.415
1.012,-4.447,-8.919,13.418
1.057,-5.405,-8.602,13.428
0.999,-4.868,-7.507,13.429
0.091,-4.416,-7.366,13.432
-1.131,-4.684,-8.414,13.517
-1.076,-4.626,-8.531,13.522
-0.619,-5.032,-7.833,13.524
0.759,-3.568,-8.687,13.526
0.678,-5.637,-6.755,13.527
-0.799,-6.132,-7.093,13.615
2.102,-5.263,-7.785,13.616
-1.144,-5.744,-7.378,13.618
-1.811,-4.651,-7.724,13.62
1.471,-5.414,-7.843,13.72
2.657,-6.271,-7.314,13.722
4.029,-6.386,-7.757,13.723
4.782,-2.45,-9.359,13.725
6.098,-4.245,-8.446,13.727
4.768,-3.145,-9.089,13.814
4.106,-2.404,-9.049,13.816
4.051,-2.134,-7.442,13.826
4.247,-1.498,-6.975,13.828
3.421,-1.247,-7.313,13.829
2.643,-0.964,-7.185,13.914
2.026,-0.843,-6.26,13.916
2.585,-2.004,-5.823,13.918
2.589,-1.753,-9.617,13.919
-2.473,-1.313,-10.933,13.921
-1.795,-2.802,-9.618,14.014
-0.262,-4.713,-7.927,14.016
-1.484,-4.205,-7.755,14.018
-2.998,-3.467,-9.173,14.019
-3.642,-2.553,-9.927,14.021
-3.489,-0.77,-10.533,14.114
-4.423,-0.992,-10.931,14.116
-4.335,-1.255,-11.695,14.118
-4.567,-0.111,-13.699,14.119
-5.649,-1.684,-14.252,14.121
-3.787,-3.504,-14.04,14.214
-4.063,-3.579,-15.512,14.225
-3.523,-10.292,-12.631,14.233
-2.447,-7.418,-7.158,14.241
-0.203,-5.599,-3.99,14.243
-1.151,-3.738,-6.726,14.315
0.983,-1.179,-7.875,14.325
1.225,-1.419,-8.613,14.327
2.606,-1.974,-9.242,14.329
2.334,-3.742,-9.949,14.33
3.3,-3.3,-9.6,14.389
2.764,-3.934,-8.404,14.395
2.036,-4.666,-7.496,14.397
1.236,-5.066,-6.896,14.398
1.051,-5.062,-5.874,14.4
1.476,-4.932,-5.765,14.488
1.243,-4.246,-5.291,14.494
-0.071,-4.437,-6.274,14.495
-2.048,-1.845,-8.39,14.497
-3.086,-1.109,-13.117,14.589
-4.852,1.065,-16.57,14.606
-2.319,-0.942,-15.284,14.607
-2.1,-1.8,-9.6,14.609
-2.214,-0.591,-6.783,14.62
0.547,-0.375,-5.398,14.714
4.313,-1.281,-4.575,14.716
8.438,-1.66,-8.558,14.718
9.058,-2.174,-12.306,14.723
8.821,-1.613,-8.947,14.724
6.389,3.156,-8.311,14.821
3.689,2.236,-7.871,14.824
2.611,-0.216,-7.769,14.825
3.456,-3.558,-7.984,14.827
3.3,-5.6,-8.8,14.829
3.2,-8.22,-10.46,14.83
6.118,-4.999,-12.084,14.916
7.305,-4.616,-12.549,14.921
5.087,-1.98,-10.674,14.928
1.694,0.579,-9.542,14.929
2.487,1.92,-8.474,14.939
2.29,2.838,-8.241,15.014
3.0,2.2,-8.0,15.016
3.196,2.105,-7.088,15.017
3.734,1.857,-7.711,15.019
4.595,2.781,-6.31,15.021
3.873,4.627,-4.418,15.114
4.209,5.791,-6.227,15.116
5.9,6.2,-6.7,15.12
7.182,6.218,-5.145,15.124
5.327,4.273,-4.282,15.126
6.018,3.404,-1.483,15.218
7.474,2.975,-1.32,15.22
4.356,2.571,-2.937,15.222
2.877,3.615,-4.952,15.223
3.743,4.271,-5.814,15.313
3.063,3.439,-5.202,15.314
2.912,2.52,-5.933,15.316
1.89,2.616,-6.006,15.318
-1.892,6.347,-6.355,15.415
-3.243,10.229,-11.886,15.417
2.367,14.412,-16.58,15.428
-0.518,10.869,-12.351,15.43
-1.751,6.982,-12.931,15.432
-4.176,5.541,-13.465,15.434
-3.057,6.367,-13.795,15.517
-4.298,7.979,-11.709,15.519
-4.658,7.977,-10.44,15.521
-5.716,6.365,-8.726,15.522
-5.701,5.61,-6.445,15.524
-5.117,7.549,-4.891,15.594
-3.261,8.311,-4.573,15.597
-2.338,10.252,-2.349,15.602
-1.983,9.77,-3.198,15.604
-1.922,8.74,-4.236,15.607
-1.179,10.511,-2.11,15.712
-0.396,11.775,-2.102,15.714
-1.611,9.776,-3.594,15.715
-3.95,8.591,-2.475,15.738
-1.431,10.183,-3.135,15.805
0.742,9.341,-2.871,15.81
0.216,9.118,-2.358,15.812
0.341,9.422,-2.721,15.813
0.33,9.298,-3.215,15.815
0.424,9.386,-2.612,15.817
0.379,9.27,-2.339,15.893
1.181,9.326,-2.291,15.895
0.988,9.37,-1.989,15.902
1.087,9.835,-2.442,15.904
0.133,10.067,-1.267,15.989
0.219,9.515,-2.059,15.991
0.111,9.289,-1.056,15.992
0.904,8.963,-1.652,15.994
2.237,8.43,-1.819,15.996
1.272,9.07,-2.605,16.093
2.081,9.124,-2.662,16.095
2.091,10.646,-5.443,16.097
0.584,9.175,-3.848,16.11
1.446,10.023,-4.671,16.113
1.776,9.805,-4.052,16.225
1.344,8.355,-3.848,16.227
-0.03,9.118,-4.719,16.228
0.224,4.695,-1.648,16.231
1.77,10.518,-3.119,16.233
-1.144,4.291,-2.649,16.29
0.622,7.724,-0.516,16.292
0.767,8.233,0.533,16.297
-0.089,9.882,-1.398,16.299
0.522,7.424,-2.416,16.3
1.7,6.72,-1.54,16.302
2.404,7.751,0.574,16.398
2.848,7.281,-0.053,16.4
4.665,5.683,0.342,16.406
5.897,5.462,0.695,16.408
6.436,6.115,0.075,16.489
6.655,6.062,-1.158,16.49
6.518,6.207,-0.913,16.5
5.718,5.287,-0.853,16.503
4.28,6.399,-2.718,16.589
2.049,7.224,-4.998,16.59
0.067,5.467,-8.967,16.599
-2.469,8.228,-9.225,16.6
-6.515,11.962,-8.64,16.602
-1.853,14.545,-10.892,16.714
-0.849,12.118,-13.469,16.715
-0.945,10.092,-13.147,16.717
-1.312,7.58,-12.267,16.719
-2.029,5.986,-11.457,16.725
-2.72,6.154,-9.562,16.816
-2.274,5.24,-8.99,16.818
-1.231,4.398,-9.051,16.819
-0.708,4.041,-7.965,16.826
-0.8,4.3,-7.2,16.827
-1.862,4.828,-4.093,16.829
-2.871,7.737,-4.466,16.831
-0.447,8.074,-6.087,16.914
-0.578,8.384,-5.847,16.915
-1.052,8.515,-6.068,16.917
-1.219,8.186,-5.816,16.92
-1.43,6.999,-7.115,16.923
-1.739,5.292,-8.924,16.988
-1.28,3.304,-9.238,16.991
-0.704,3.241,-8.381,16.992
-0.267,2.333,-10.567,16.997
-1.391,4.986,-6.617,17.139
-2.0,7.8,-4.0,17.142
-0.552,8.71,-6.395,17.145
1.937,5.061,-11.498,17.147
4.21,4.484,-12.994,17.215
3.333,7.488,-12.92,17.217
4.824,7.841,-14.165,17.218
3.771,6.286,-12.157,17.22
1.243,5.071,-9.314,17.222
-0.4,4.9,-7.5,17.223
-1.029,5.886,-6.857,17.314
-0.835,6.276,-7.141,17.315
-0.667,6.788,-8.12,17.317
-1.792,6.047,-8.955,17.319
-1.11,5.916,-6.906,17.32
-0.076,7.148,-6.53,17.414
1.028,7.155,-6.573,17.416
0.583,6.867,-6.856,17.417
0.89,7.88,-4.406,17.419
1.229,7.159,-6.045,17.421
1.093,7.885,-5.014,17.517
2.374,7.949,-4.898,17.518
2.337,7.373,-5.031,17.52
2.701,7.502,-4.036,17.522
3.416,7.431,-4.308,17.523
2.636,8.808,-4.526,17.589
3.326,9.478,-4.04,17.591
2.957,10.372,-4.751,17.593
2.513,10.14,-3.347,17.594
3.564,12.892,-3.074,17.604
2.963,8.32,-2.72,17.687
3.292,7.173,-4.973,17.689
4.094,8.829,-2.729,17.69
0.637,9.08,-5.08,17.692
1.735,8.824,-3.924,17.791
0.769,9.39,-3.39,17.796
-0.253,9.065,-3.565,17.798
-0.345,8.792,-3.892,17.8
-0.949,8.478,-2.178,17.802
-1.871,11.466,2.597,17.914
-6.786,9.563,-2.011,17.916
-2.671,8.026,-6.823,17.917
0.719,1.904,3.245,17.919
1.105,6.441,6.556,17.921
5.643,7.414,4.329,18.016
4.057,8.486,0.471,18.018
5.206,8.916,-3.21,18.02
5.32,8.788,-3.067,18.023
4.471,7.557,-0.486,18.033
6.986,8.829,-2.543,18.035
6.16,9.724,2.332,18.125
4.34,8.216,4.088,18.127
5.56,7.624,5.032,18.129
7.46,8.484,5.012,18.131
7.34,8.936,5.048,18.135
8.557,7.102,8.495,18.214
6.899,8.707,8.032,18.216
5.362,5.965,7.937,18.221
4.426,5.516,7.311,18.222
3.824,4.231,6.674,18.224
3.157,4.087,7.052,18.314
2.678,5.443,6.826,18.316
1.917,6.265,7.439,18.317
1.165,6.87,8.322,18.319
1.596,7.309,8.365,18.32
4.358,3.53,8.6,18.414
3.688,4.272,7.9,18.415
2.392,1.081,7.1,18.432
2.2,0.1,6.1,18.433
3.122,0.124,5.8,18.435
2.93,1.901,3.4,18.517
8.579,-1.704,5.4,18.526
8.05,-1.235,4.9,18.527
6.918,-2.345,5.282,18.529
8.718,-2.985,6.262,18.531
9.074,0.132,6.094,18.613
8.409,0.689,7.202,18.615
6.461,2.125,8.714,18.616
4.74,3.429,8.631,18.618
3.122,4.678,7.384,18.714
1.218,3.382,6.324,18.715
-3.071,-1.029,7.806,18.717
-6.4,-1.279,7.808,18.719
-6.7,4.544,6.836,18.72
-4.68,7.22,7.496,18.814
-6.041,8.859,8.688,18.815
-7.778,-0.178,11.616,18.825
-12.616,-0.916,9.943,18.827
-9.531,1.869,9.786,18.837
-3.811,3.596,13.964,18.914
-3.785,-0.362,11.282,18.916
-2.351,0.316,9.564,18.917
-2.076,-1.125,8.845,18.919
-2.687,0.871,11.009,18.924
-2.595,2.3,14.049,19.014
-1.899,0.7,13.47,19.02
-1.871,1.7,13.331,19.022
-2.313,2.9,13.024,19.023
-2.391,1.4,11.997,19.025
-2.2,7.66,11.38,19.115
-2.318,5.482,8.445,19.117
-1.436,6.744,8.431,19.118
-0.755,3.885,8.756,19.12
-0.391,0.049,8.747,19.122
-0.23,-2.528,8.513,19.189
1.415,-2.136,8.843,19.208
2.704,-0.734,9.236,19.21
3.534,-0.206,9.923,19.211
3.723,-0.504,10.215,19.213
2.175,-2.014,9.561,19.29
2.891,-2.289,10.202,19.292
2.216,-3.13,8.785,19.293
2.898,-4.708,8.389,19.295
2.264,-4.043,8.785,19.389
2.011,-1.955,8.968,19.39
1.755,-0.581,8.728,19.392
-0.664,1.343,10.415,19.398
-2.472,-0.087,9.87,19.4
0.406,-0.039,8.768,19.49
0.954,-1.156,5.998,19.492
0.566,-1.96,3.505,19.494
0.941,-2.278,2.462,19.495
-0.233,-4.133,2.433,19.497
-0.275,-5.221,3.883,19.589
-0.342,-6.726,4.306,19.601
-0.272,-8.055,4.719,19.603
0.164,-5.377,6.209,19.61
0.719,-1.27,7.679,19.611
2.152,7.945,10.59,19.691
4.524,14.928,13.255,19.693
5.029,9.197,12.594,19.695
2.952,4.985,11.87,19.696
0.852,3.645,11.49,19.698
0.37,3.826,10.526,19.79
-0.248,4.03,8.63,19.796
-1.796,2.959,7.759,19.801
-3.307,2.781,8.781,19.803
-4.486,4.409,9.717,19.807
-4.638,7.104,10.108,19.888
-5.057,8.886,9.271,19.89
-6.062,9.616,9.932,19.893
-4.089,10.978,11.478,19.895
0.34,9.102,14.553,19.989
2.872,9.462,14.543,19.998
3.823,8.617,12.126,20.0
2.0,6.8,9.3,20.002
1.228,4.338,7.357,20.003
0.772,2.462,6.643,20.106
1.345,2.623,6.385,20.114
1.847,4.334,6.051,20.115
0.132,5.06,6.889,20.117
-0.289,2.853,7.83,20.119
-0.109,-1.009,8.973,20.189
-2.673,-2.893,10.522,20.19
-5.273,0.727,10.182,20.192
-1.991,2.669,8.407,20.198
0.509,6.229,7.487,20.2
1.581,5.482,8.022,20.338
2.683,3.236,7.977,20.34
3.785,-0.333,9.76,20.347
6.083,0.613,12.605,20.35
7.07,2.257,13.592,20.351
4.856,-2.042,14.684,20.416
1.744,4.362,11.076,20.418
3.544,1.202,7.696,20.42
2.467,1.213,8.173,20.421
0.667,0.313,9.973,20.423
0.611,4.676,12.049,20.424
0.544,2.322,8.856,20.426
1.078,-0.038,8.041,20.511
1.087,0.877,9.165,20.519
1.68,-1.531,8.739,20.52
2.035,-2.098,8.404,20.522
-0.268,-1.405,7.295,20.613
0.979,-1.463,8.037,20.616
0.28,-3.04,8.9,20.623
1.133,-2.782,9.158,20.625
2.109,-3.892,7.968,20.627
2.099,-2.623,7.937,20.713
2.517,-2.329,8.511,20.715
2.937,-3.389,7.911,20.717
4.078,-3.586,8.174,20.726
5.233,-4.082,8.458,20.728
3.636,-6.957,8.701,20.813
4.281,-7.758,8.494,20.815
2.245,-6.601,11.593,20.817
3.349,-7.509,10.235,20.822
3.755,-7.478,9.549,20.824
1.181,-6.662,8.924,20.914
0.886,-6.871,8.643,20.915
0.436,-5.732,7.305,20.917
0.092,-4.425,7.51,20.919
-0.285,-3.35,7.781,20.925
0.553,-4.777,7.721,20.988
0.255,-4.728,8.002,20.989
0.249,-6.374,6.36,20.991
-0.064,-6.768,6.274,20.997
1.495,-6.922,5.337,21.111
1.363,-7.046,5.909,21.113
0.904,-8.083,7.011,21.115
0.441,-6.837,6.302,21.124
0.02,-6.918,7.901,21.215
-0.486,-7.544,6.285,21.217
-2.068,-9.371,3.881,21.226
-4.456,-11.524,1.36,21.228
-6.61,-11.639,1.226,21.23
-6.896,-9.883,3.711,21.231
-4.247,-7.583,5.691,21.313
-1.93,-5.926,7.213,21.315
0.028,-3.919,7.16,21.317
0.67,-4.526,5.113,21.318
0.291,-5.979,3.289,21.32
0.777,-6.959,3.614,21.388
1.939,-7.179,4.807,21.39
2.919,-6.811,5.992,21.392
3.456,-6.275,7.052,21.394
4.229,-4.318,8.4,21.396
4.112,-3.77,8.479,21.486
3.406,-5.785,9.339,21.487
1.102,-7.595,9.613,21.497
-1.182,-8.255,9.518,21.499
-1.114,-7.943,10.671,21.588
-0.959,-6.763,12.567,21.589
1.571,-5.943,12.921,21.598
0.671,-5.443,12.221,21.599
0.545,-5.489,10.75,21.601
0.57,-5.641,9.066,21.713
0.336,-5.771,7.56,21.714
0.42,-5.74,6.389,21.716
0.63,-5.459,5.934,21.717
0.832,-5.263,6.543,21.719
-0.641,-5.337,6.733,21.821
-0.567,-5.531,6.494,21.823
-0.627,-5.894,6.561,21.825
-0.871,-6.414,6.657,21.827
-1.359,-6.663,6.667,21.83
-1.224,-6.802,6.78,21.831
-0.09,-7.366,6.725,21.913
-0.279,-7.788,6.803,21.923
-0.695,-7.883,6.563,21.924
-0.582,-7.618,6.345,21.937
-0.457,-7.232,6.559,21.939
-0.589,-8.278,5.222,22.012
-0.807,-8.248,5.185,22.013
-0.685,-8.304,5.23,22.015
-0.511,-8.522,5.378,22.017
-0.441,-8.715,5.619,22.018
-0.178,-9.056,5.144,22.114
0.004,-9.526,4.507,22.116
-0.57,-10.507,3.059,22.117
-0.419,-10.17,2.163,22.119
1.03,-10.207,1.959,22.121
3.089,-10.255,0.504,22.213
2.166,-10.617,0.194,22.215
1.079,-10.711,0.509,22.216
0.738,-10.081,1.045,22.218
1.006,-9.547,1.557,22.22
0.069,-9.3,1.654,22.313
0.427,-9.229,1.091,22.314
0.571,-9.414,0.857,22.326
0.642,-9.671,0.763,22.328
0.733,-7.714,-0.051,22.33
0.76,-8.643,-2.159,22.415
0.219,-9.271,-2.122,22.417
-0.195,-10.886,0.058,22.418
-0.048,-11.086,2.827,22.42
-0.319,-11.029,5.222,22.423
0.93,-10.457,4.854,22.516
1.051,-9.916,2.93,22.517
1.547,-9.495,1.531,22.519
1.643,-9.419,0.451,22.525
1.495,-9.335,0.481,22.527
1.536,-9.332,-0.074,22.593
1.843,-9.279,-0.017,22.596
1.915,-9.643,-0.066,22.6
1.743,-9.779,0.283,22.601
1.734,-9.783,0.506,22.613
1.723,-9.538,0.511,22.686
1.798,-9.451,0.381,22.687
1.887,-9.406,0.385,22.689
1.972,-9.564,0.251,22.788
2.115,-9.643,0.434,22.796
2.162,-9.719,0.255,22.798
2.104,-9.798,-0.062,22.799
1.01,-9.839,-0.174,22.803
1.437,-9.71,0.913,22.889
1.367,-9.567,1.167,22.891
1.445,-9.507,1.391,22.894
1.422,-9.459,1.476,22.895
1.422,-9.459,1.476,22.897
1.398,-9.412,1.56,22.988
1.365,-9.578,1.527,22.99
1.423,-9.704,1.495,22.991
1.342,-9.775,1.632,22.998
1.308,-9.697,1.578,23.0
1.734,-9.783,0.506,23.087
1.702,-9.749,0.819,23.089
1.93,-9.985,0.868,23.09
1.577,-10.362,0.489,23.096
1.7,-10.2,0.9,23.099
1.432,-9.989,2.014,23.205
1.34,-9.542,1.972,23.207
1.486,-9.138,1.903,23.208
1.319,-9.227,1.316,23.21
1.134,-9.077,1.653,23.215
1.073,-8.976,2.405,23.288
1.151,-8.916,2.63,23.289
1.095,-9.035,2.681,23.291
0.866,-9.023,2.847,23.293
1.059,-8.969,2.988,23.294
-0.067,-8.933,2.967,23.388
0.007,-9.252,2.815,23.389
0.033,-9.333,2.867,23.391
0.011,-9.178,3.122,23.393
-0.096,-9.026,3.607,23.402
-0.056,-9.211,3.489,23.488
0.037,-9.259,3.174,23.489
0.122,-9.256,2.944,23.491
0.196,-9.574,2.793,23.493
0.081,-9.57,2.663,23.494
1.464,-9.834,2.407,23.613
1.524,-10.192,2.035,23.614
1.349,-10.084,2.87,23.616
1.166,-9.923,2.847,23.617
1.402,-8.988,2.74,23.624
1.81,-8.186,2.518,23.714
1.101,-7.344,2.32,23.722
1.037,-6.51,3.013,23.723
1.366,-7.523,4.147,23.725
0.757,-9.421,3.117,23.727
-0.519,-10.16,2.428,23.728
-1.845,-10.484,1.255,23.813
-0.855,-10.616,1.645,23.814
-0.882,-10.524,1.618,23.826
-1.006,-10.459,1.594,23.833
-0.573,-10.192,1.327,23.835
-0.39,-9.869,0.41,23.913
-0.533,-9.667,0.867,23.914
-0.61,-9.631,1.79,23.916
-0.755,-9.816,2.045,23.917
-0.198,-9.514,2.502,23.919
-1.745,-9.684,1.655,24.012
-0.659,-9.788,2.041,24.014
-1.122,-9.649,1.878,24.02
-2.196,-9.527,1.904,24.021
-0.692,-9.255,2.408,24.023
-0.024,-9.035,2.476,24.112
1.716,-9.01,1.916,24.114
-1.294,-9.841,1.406,24.116
-2.702,-9.786,2.998,24.117
-2.745,-9.884,1.255,24.119
-1.278,-10.484,1.336,24.193
-1.644,-10.231,1.229,24.202
-0.196,-10.114,-0.399,24.218
0.532,-9.555,-0.042,24.243
0.149,-9.611,1.162,24.245
-0.251,-9.811,0.162,24.335
0.446,-9.375,0.637,24.338
0.972,-9.259,0.643,24.339
0.394,-9.53,0.8,24.412
0.013,-9.296,-0.1,24.414
-0.008,-9.074,-0.2,24.416
0.183,-9.191,0.2,24.417
-1.324,-9.398,1.266,24.422
-1.102,-10.072,1.457,24.517
-1.634,-10.857,1.452,24.518
-1.986,-10.897,1.199,24.52
-2.001,-10.336,0.579,24.522
-2.521,-9.89,-0.07,24.523
-1.012,-10.231,0.844,24.525
0.622,-9.424,0.416,24.613
0.689,-9.278,2.222,24.623
2.278,-9.316,2.764,24.624
3.1,-9.16,1.62,24.626
2.389,-9.278,1.722,24.628
-0.894,-9.641,2.406,24.713
-0.333,-9.467,2.067,24.714
-0.125,-9.522,1.675,24.716
0.053,-9.771,1.753,24.718
0.216,-10.01,1.516,24.719
0.296,-9.973,1.196,24.814
0.457,-9.898,0.557,24.816
0.598,-9.686,0.398,24.817
0.643,-9.502,0.243,24.823
0.808,-9.355,0.208,24.825
-0.249,-9.412,0.291,24.919
-0.296,-9.332,0.576,24.92
-0.524,-9.31,0.743,24.922
-0.555,-9.256,0.933,24.924
-0.626,-9.394,0.854,24.926
-0.664,-9.585,0.586,25.02
-1.136,-9.515,1.014,25.022
-1.164,-10.385,-0.114,25.025
1.04,-9.517,-0.938,25.027
-2.512,-10.105,1.371,25.028
