gyro_time_list,gyro_x_list,gyro_y_list,gyro_z_list
0.0,-0.1,0.1,0.1
0.002,-0.1,0.1,0.0
0.005,0.0,0.0,0.0
0.011,0.0,0.0,0.0
0.013,-0.1,-0.0,-0.0
0.102,-0.1,0.0,0.0
0.103,0.0,0.0,0.0
0.105,0.0,0.0,0.0
0.107,0.0,0.1,0.0
0.111,-0.0,0.1,0.0
0.199,0.0,0.1,0.0
0.2,0.0,0.1,0.1
0.202,0.0,0.1,0.1
0.203,0.0,0.1,0.0
0.205,-0.0,0.1,0.0
0.318,-0.0,0.1,0.0
0.32,0.0,0.1,0.0
0.328,0.0,0.1,0.0
0.33,-0.0,0.1,0.0
0.342,-0.0,0.1,0.0
0.403,-0.1,0.1,0.0
0.404,-0.1,0.2,0.0
0.406,-0.0,0.2,0.0
0.408,-0.0,0.2,0.0
0.409,-0.1,0.3,0.0
0.503,-0.2,0.3,0.0
0.505,-0.4,0.4,0.0
0.507,-0.7,0.5,0.0
0.508,-1.0,0.7,0.1
0.51,-1.3,1.0,0.1
0.605,-1.3,1.2,0.3
0.606,-1.0,1.6,0.6
0.608,-0.4,1.7,0.8
0.61,-0.2,1.8,0.8
0.611,-0.4,2.0,0.9
0.721,-0.8,2.1,0.9
0.722,-1.3,2.2,0.9
0.725,-1.9,2.2,0.8
0.74,-2.6,2.2,0.8
0.746,-3.3,2.3,0.8
0.796,-3.9,2.5,0.9
0.801,-4.6,2.6,1.1
0.805,-5.0,2.8,1.4
0.807,-5.2,2.9,1.8
0.904,-4.9,3.0,2.1
0.906,-4.1,3.1,2.3
0.907,-3.1,2.9,2.6
0.909,-1.9,2.8,2.7
0.911,-0.8,2.6,2.6
1.013,-0.1,2.3,2.3
1.014,0.1,2.0,1.8
1.016,0.1,1.5,1.2
1.017,-0.2,1.0,0.6
1.019,-0.5,0.6,0.2
1.115,-0.3,0.1,-0.1
1.118,-0.0,-0.2,-0.1
1.12,0.2,-0.3,0.0
1.131,0.2,-0.1,0.1
1.133,0.1,0.2,0.2
1.198,-0.2,0.6,0.4
1.209,-0.2,1.0,0.5
1.211,-0.1,1.3,0.6
1.213,0.2,1.5,0.7
1.214,0.6,1.4,0.7
1.301,0.9,1.3,0.7
1.302,1.1,1.1,0.6
1.304,1.1,0.7,0.3
1.306,1.0,0.1,-0.1
1.307,0.7,-0.4,-0.5
1.399,0.5,-0.9,-0.9
1.4,0.5,-1.3,-1.2
1.402,0.5,-1.7,-1.4
1.404,0.5,-2.0,-1.6
1.405,0.5,-2.1,-1.6
1.517,0.4,-2.2,-1.7
1.519,0.3,-2.1,-1.6
1.53,0.1,-1.9,-1.6
1.531,-0.0,-1.7,-1.5
1.533,-0.2,-1.4,-1.3
1.6,-0.3,-1.2,-1.2
1.602,-0.3,-1.0,-1.0
1.604,-0.3,-0.8,-0.8
1.612,-0.2,-0.7,-0.7
1.613,-0.2,-0.6,-0.5
1.709,-0.1,-0.5,-0.4
1.711,-0.1,-0.3,-0.2
1.712,0.0,-0.1,0.0
1.714,0.2,0.1,0.3
1.715,0.4,0.2,0.6
1.798,0.6,0.4,0.9
1.804,0.4,0.4,1.1
1.806,-0.3,0.2,1.1
1.809,-1.1,0.0,1.0
1.81,-1.7,0.0,0.9
1.918,-2.2,0.0,0.9
1.93,-2.4,0.0,1.0
1.931,-2.5,0.2,1.4
1.933,-2.3,0.5,1.8
1.935,-1.8,0.9,2.1
2.005,-1.4,1.2,2.2
2.007,-1.1,1.3,2.0
2.008,-0.8,1.3,1.7
2.01,-0.4,1.1,1.2
2.011,-0.1,0.7,0.8
2.102,0.2,0.3,0.4
2.105,0.2,-0.3,-0.0
2.107,-0.1,-0.8,-0.4
2.108,-0.5,-1.3,-0.7
2.11,-1.0,-1.5,-1.0
2.212,-1.5,-1.6,-1.2
2.214,-1.9,-1.5,-1.4
2.221,-2.1,-1.3,-1.4
2.224,-2.2,-1.0,-1.4
2.227,-1.9,-0.7,-1.2
2.298,-1.4,-0.4,-1.0
2.3,-0.7,-0.1,-0.6
2.301,0.0,0.1,-0.2
2.307,0.7,0.3,0.2
2.309,1.1,0.6,0.5
2.396,1.3,0.8,0.8
2.397,1.4,1.1,1.0
2.399,1.4,1.4,1.1
2.4,1.7,1.6,1.1
2.502,1.9,1.9,1.1
2.504,2.0,1.9,1.0
2.506,2.2,1.9,0.9
2.507,2.3,1.7,0.7
2.509,2.2,1.3,0.5
2.608,2.0,0.8,0.2
2.611,1.8,0.3,-0.1
2.613,1.8,-0.2,-0.4
2.615,1.8,-0.6,-0.6
2.616,1.8,-1.0,-0.8
2.698,1.9,-1.4,-0.8
2.703,1.9,-1.7,-0.8
2.705,1.8,-1.8,-0.8
2.707,1.5,-1.9,-0.8
2.708,1.1,-1.7,-0.8
2.798,0.5,-1.5,-0.8
2.799,-0.1,-1.3,-0.8
2.801,-0.7,-1.2,-0.9
2.802,-1.1,-1.1,-0.9
2.838,-1.4,-1.0,-0.9
2.898,-1.6,-0.9,-0.9
2.904,-1.6,-0.7,-0.8
2.906,-1.4,-0.5,-0.5
2.908,-1.0,-0.2,-0.1
2.909,-0.4,0.1,0.4
3.011,0.3,0.5,1.1
3.02,1.0,0.9,1.7
3.022,1.7,1.4,2.2
3.023,1.9,1.7,2.3
3.035,1.3,1.6,2.2
3.105,0.7,1.5,1.8
3.107,0.2,1.3,1.3
3.109,0.0,1.2,0.9
3.11,-0.2,1.1,0.4
3.112,-0.6,0.8,0.1
3.203,-1.0,0.3,-0.3
3.205,-0.9,-0.2,-0.7
3.207,-0.7,-0.8,-1.1
3.208,-0.7,-1.3,-1.4
3.21,-0.9,-1.9,-1.6
3.304,-1.1,-2.2,-1.7
3.308,-1.4,-2.4,-1.6
3.309,-1.5,-2.3,-1.6
3.312,-1.6,-2.1,-1.4
3.314,-1.6,-1.9,-1.2
3.414,-1.5,-1.6,-1.0
3.416,-1.4,-1.3,-0.8
3.418,-1.2,-1.0,-0.6
3.437,-1.2,-0.8,-0.4
3.439,-1.2,-0.6,-0.2
3.501,-1.2,-0.3,0.0
3.506,-1.0,0.0,0.3
3.507,-0.8,0.4,0.6
3.509,-0.6,0.7,0.9
3.511,-0.4,0.9,1.1
3.602,-0.2,1.1,1.3
3.603,0.1,1.2,1.4
3.605,0.4,1.4,1.5
3.607,0.5,1.6,1.6
3.615,0.6,1.8,1.8
3.702,0.8,2.0,2.0
3.704,0.8,2.3,2.2
3.706,1.1,2.6,2.5
3.707,1.5,2.9,2.6
3.709,1.9,3.2,2.6
3.842,2.6,3.5,2.6
3.849,3.5,3.5,2.5
3.863,4.4,3.3,2.3
3.865,5.1,2.8,2.1
3.866,5.5,2.0,1.8
3.932,5.6,0.8,1.7
3.934,5.4,-0.5,1.6
3.936,5.0,-1.4,1.6
3.938,4.6,-2.2,1.6
3.94,3.8,-3.0,1.5
3.997,2.8,-3.8,1.4
3.999,2.2,-4.7,1.3
4.0,1.7,-4.8,1.0
4.002,1.0,-3.8,0.5
4.105,0.3,-2.7,0.2
4.106,-0.1,-1.4,-0.1
4.108,-0.3,-0.4,-0.3
4.11,-0.2,0.2,-0.5
4.111,0.3,0.6,-0.6
4.221,0.8,0.6,-0.6
4.223,1.4,0.5,-0.5
4.235,1.8,0.3,-0.4
4.237,1.9,-0.1,-0.3
4.243,1.8,-0.4,-0.3
4.302,1.5,-0.7,-0.3
4.307,1.1,-1.0,-0.4
4.309,0.4,-1.2,-0.6
4.31,-0.5,-1.3,-0.8
4.312,-1.5,-1.4,-0.9
4.402,-2.2,-1.3,-1.0
4.404,-2.5,-1.2,-1.1
4.405,-2.5,-1.0,-1.2
4.407,-2.2,-0.8,-1.2
4.409,-1.6,-0.6,-1.1
4.498,-1.2,-0.5,-1.1
4.499,-0.8,-0.3,-1.1
4.505,-0.4,-0.1,-1.1
4.507,0.2,0.0,-1.0
4.508,0.9,0.4,-0.7
4.608,1.5,0.7,-0.4
4.63,1.9,0.9,-0.1
4.632,2.1,1.0,0.1
4.633,1.7,0.9,0.2
4.636,1.0,0.6,0.2
4.676,0.0,0.2,0.1
4.681,-1.1,-0.2,0.1
4.682,-1.9,-0.5,0.1
4.684,-2.4,-0.7,0.1
4.686,-2.8,-0.8,0.1
4.82,-2.9,-0.7,0.1
4.821,-2.9,-0.5,0.3
4.823,-2.5,-0.2,0.4
4.824,-1.9,0.1,0.7
4.91,-1.1,0.4,1.0
4.912,-0.3,0.6,1.3
4.914,0.5,0.9,1.5
4.915,1.0,1.1,1.6
4.917,1.3,1.2,1.8
4.919,1.6,1.3,1.9
5.0,1.6,1.4,1.9
5.002,1.4,1.4,1.8
5.007,1.0,1.4,1.6
5.009,0.7,1.3,1.4
5.011,0.5,1.3,1.1
5.098,0.4,1.2,0.8
5.099,0.6,1.1,0.6
5.105,1.0,1.0,0.4
5.107,1.4,1.0,0.4
5.108,2.0,0.9,0.3
5.203,2.9,0.9,0.2
5.204,3.6,0.9,0.1
5.206,4.2,0.8,0.1
5.208,4.5,0.5,0.0
5.21,4.4,-0.0,-0.1
5.341,4.1,-0.7,-0.2
5.343,3.6,-1.3,-0.3
5.345,3.1,-1.8,-0.5
5.346,2.6,-2.3,-0.7
5.359,1.9,-2.5,-0.9
5.403,1.1,-2.6,-1.1
5.404,0.4,-2.7,-1.3
5.406,-0.3,-2.7,-1.5
5.408,-0.8,-2.6,-1.5
5.412,-1.2,-2.5,-1.5
5.414,-1.4,-2.3,-1.4
5.491,-1.4,-2.0,-1.2
5.492,-1.3,-1.7,-0.8
5.6,-1.1,-1.4,-0.2
5.601,-0.7,-1.0,0.5
5.603,-0.5,-0.7,1.1
5.605,-0.7,-0.4,1.6
5.606,-1.0,-0.2,1.8
5.612,-1.3,0.0,1.7
5.718,-1.5,0.2,1.4
5.72,-1.4,0.5,1.0
5.723,-0.7,0.7,0.6
5.73,0.6,1.0,0.5
5.741,2.4,1.3,0.5
5.743,3.9,1.1,0.5
5.812,4.6,0.7,0.7
5.813,4.3,0.3,0.5
5.818,3.1,0.3,0.4
5.82,1.5,0.1,0.2
5.896,-0.3,-0.0,0.0
5.898,-1.6,-0.1,-0.1
5.9,-2.4,-0.2,-0.1
5.901,-2.9,-0.3,-0.1
5.903,-2.9,-0.5,-0.1
6.002,-2.7,-0.6,-0.1
6.003,-2.4,-0.6,-0.0
6.007,-1.8,-0.6,0.2
6.009,-0.7,-0.7,0.3
6.012,0.1,-0.5,0.5
6.114,0.2,-0.3,0.7
6.115,-0.1,0.1,0.8
6.117,-0.4,0.5,0.9
6.128,-0.6,1.1,1.1
6.129,-0.7,1.6,1.2
6.198,-0.6,2.0,1.2
6.206,-0.4,2.2,1.1
6.208,-0.0,2.3,0.9
6.209,0.3,2.5,0.8
6.211,0.8,2.6,0.7
6.297,1.5,2.7,0.8
6.299,2.3,2.6,0.8
6.305,2.9,2.4,0.7
6.307,3.2,1.9,0.6
6.308,3.1,1.3,0.2
6.402,2.8,0.7,-0.1
6.404,2.7,0.2,-0.3
6.406,2.7,-0.5,-0.4
6.407,2.7,-1.0,-0.6
6.409,2.7,-1.5,-0.7
6.514,2.6,-1.8,-0.8
6.516,2.4,-1.9,-1.0
6.527,2.1,-2.0,-1.2
6.533,1.5,-2.0,-1.4
6.535,0.8,-1.9,-1.5
6.597,0.1,-1.8,-1.6
6.602,-0.4,-1.6,-1.5
6.607,-0.8,-1.5,-1.4
6.609,-0.9,-1.3,-1.2
6.612,-0.9,-1.1,-0.9
6.697,-0.6,-0.8,-0.5
6.702,-0.3,-0.5,0.1
6.703,0.1,-0.1,0.7
6.705,0.3,0.2,1.3
6.707,0.2,0.5,1.8
6.803,-0.4,0.1,2.0
6.805,-1.3,-0.2,1.9
6.807,-2.6,-1.0,1.4
6.808,-3.7,-1.5,0.8
6.81,-4.1,-1.5,0.2
6.938,-4.2,-0.9,-0.1
6.948,-3.7,0.1,0.1
6.95,-1.9,1.3,0.8
6.951,0.7,2.3,1.4
6.953,3.2,2.7,1.8
7.003,5.2,2.9,2.0
7.007,6.7,2.9,1.9
7.009,6.9,2.7,1.7
7.01,5.3,1.9,1.1
7.012,2.6,1.2,0.5
7.014,0.6,0.6,0.2
7.076,-0.7,0.1,-0.1
7.079,-1.4,-0.4,-0.3
7.082,-1.9,-0.7,-0.5
7.087,-2.0,-0.9,-0.5
7.195,-1.7,-0.9,-0.5
7.197,-0.9,-0.9,-0.3
7.199,0.4,-0.9,0.0
7.314,1.7,-0.8,0.3
7.316,2.5,-0.7,0.5
7.333,2.9,-0.5,0.5
7.334,3.0,-0.2,0.3
7.336,2.7,-0.0,-0.0
7.337,2.2,0.1,-0.2
7.396,1.7,0.0,-0.4
7.398,1.2,-0.1,-0.5
7.399,0.9,-0.2,-0.6
7.401,0.6,-0.3,-0.5
7.402,0.6,-0.3,-0.5
7.5,0.5,-0.2,-0.4
7.501,0.5,-0.2,-0.4
7.503,0.4,-0.1,-0.3
7.506,0.2,-0.0,-0.3
7.508,0.0,0.2,-0.3
7.611,0.0,0.4,-0.2
7.613,0.3,0.8,-0.1
7.614,0.8,1.2,0.0
7.616,1.7,1.6,0.2
7.618,2.8,1.8,0.3
7.706,3.7,1.7,0.3
7.708,4.0,1.5,0.2
7.709,3.9,1.1,0.1
7.711,3.5,0.5,0.1
7.713,2.6,-0.2,0.0
7.803,1.6,-0.8,-0.1
7.805,0.9,-1.2,-0.2
7.807,0.4,-1.5,-0.4
7.808,0.1,-1.6,-0.5
7.813,-0.1,-1.6,-0.6
7.902,-0.3,-1.6,-0.6
7.903,-0.4,-1.6,-0.5
7.905,-0.3,-1.4,-0.3
7.907,0.1,-1.2,-0.1
7.909,0.5,-1.0,0.1
8.012,0.9,-0.7,0.3
8.014,1.1,-0.5,0.3
8.016,1.2,-0.3,0.3
8.017,1.1,-0.2,0.2
8.027,0.9,-0.1,0.2
8.102,0.9,-0.0,0.1
8.104,0.8,0.1,-0.0
8.105,1.0,0.1,-0.1
8.11,1.1,0.2,-0.2
8.112,1.1,0.3,-0.3
8.196,1.0,0.3,-0.3
8.199,0.7,0.2,-0.4
8.2,0.4,0.0,-0.4
8.202,0.1,-0.1,-0.4
8.204,-0.2,-0.1,-0.3
8.301,-0.6,-0.2,-0.3
8.302,-1.4,-0.3,-0.4
8.304,-1.5,-0.1,-0.2
8.305,-1.4,-0.1,-0.1
8.307,-1.0,0.0,-0.1
8.406,-0.8,0.0,0.0
8.408,-0.8,-0.0,0.2
8.416,-0.8,-0.1,0.2
8.426,-1.0,-0.1,0.3
8.427,-1.2,-0.1,0.3
8.5,-1.5,-0.1,0.4
8.501,-1.7,-0.1,0.4
8.503,-1.7,-0.1,0.5
8.505,-1.7,0.0,0.7
8.507,-1.5,0.1,0.9
8.603,-1.3,0.2,1.2
8.604,-1.1,0.3,1.6
8.606,-0.8,0.6,1.9
8.607,-0.8,0.8,2.1
8.609,-0.8,1.0,2.3
8.704,-0.8,1.2,2.4
8.706,-0.8,1.4,2.3
8.708,-0.7,1.5,2.0
8.709,-0.3,1.4,1.5
8.711,0.3,1.4,0.9
8.815,1.0,1.4,0.4
8.817,1.4,1.1,-0.1
8.831,1.4,0.5,-0.5
8.832,1.1,-0.1,-0.8
8.834,1.1,-0.4,-1.0
8.9,1.4,-0.6,-1.1
8.901,1.7,-0.8,-1.2
8.903,2.1,-1.0,-1.2
8.905,2.4,-1.0,-1.2
8.91,2.5,-1.0,-1.1
8.998,2.4,-0.9,-1.1
9.0,2.1,-0.7,-1.0
9.001,1.7,-0.5,-1.0
9.003,1.3,-0.3,-1.0
9.096,1.0,-0.2,-1.0
9.098,0.9,-0.2,-1.0
9.099,0.9,-0.3,-1.0
9.101,0.9,-0.4,-0.9
9.103,0.9,-0.6,-0.9
9.214,0.9,-0.7,-0.8
9.216,0.8,-0.7,-0.7
9.225,0.6,-0.7,-0.5
9.227,0.4,-0.6,-0.4
9.229,0.2,-0.3,-0.2
9.301,0.2,0.1,0.0
9.306,0.4,0.5,0.2
9.307,0.8,0.8,0.4
9.309,1.3,1.0,0.5
9.311,1.7,1.0,0.6
9.4,1.8,0.8,0.7
9.402,1.6,0.5,0.7
9.409,1.2,0.3,0.6
9.411,0.2,-0.1,0.1
9.412,-1.5,-0.5,-0.4
9.496,-3.0,-0.6,-0.7
9.498,-3.6,-0.6,-1.1
9.499,-3.4,-0.8,-1.2
9.501,-2.7,-0.9,-1.3
9.507,-1.9,-1.0,-1.3
9.607,-1.4,-1.1,-1.1
9.616,-1.1,-1.1,-0.8
9.618,-0.9,-1.1,-0.5
9.619,-0.7,-1.0,-0.1
9.621,-0.7,-0.9,0.2
9.708,-0.7,-0.6,0.4
9.71,-0.9,-0.5,0.6
9.711,-1.1,-0.3,0.7
9.713,-1.3,-0.2,0.9
9.714,-1.4,0.0,1.1
9.802,-1.5,0.2,1.3
9.805,-1.5,0.5,1.6
9.807,-1.3,0.8,1.9
9.809,-1.0,1.1,2.2
9.81,-0.6,1.5,2.5
9.917,-0.1,1.9,2.7
9.918,0.4,2.2,2.9
9.92,1.1,2.6,2.9
9.922,1.8,2.8,2.8
9.923,2.2,2.9,2.5
10.001,2.2,2.6,2.1
10.003,1.8,2.2,1.4
10.005,1.2,1.7,0.7
10.007,0.6,1.1,0.1
10.008,0.1,0.5,-0.4
10.102,-0.1,0.0,-0.7
10.105,0.0,-0.5,-0.8
10.107,0.3,-0.7,-0.8
10.109,0.8,-0.7,-0.8
10.111,1.4,-0.8,-0.8
10.198,2.0,-0.8,-0.7
10.2,2.5,-0.9,-0.6
10.201,3.0,-1.0,-0.5
10.207,3.5,-1.1,-0.3
10.209,3.8,-1.3,-0.1
10.314,4.0,-1.4,0.1
10.316,4.0,-1.6,0.3
10.323,3.8,-1.7,0.5
10.324,3.5,-1.8,0.6
10.336,3.0,-2.0,0.7
10.396,2.3,-2.1,0.6
10.398,1.5,-2.3,0.6
10.403,0.8,-2.4,0.4
10.405,0.1,-2.5,0.2
10.406,-0.5,-2.4,-0.1
10.499,-0.7,-2.3,-0.3
10.501,-0.7,-2.2,-0.5
10.502,-0.5,-2.0,-0.6
10.505,-0.3,-1.8,-0.7
10.508,-0.1,-1.5,-0.8
10.594,0.1,-1.3,-0.9
10.595,0.3,-1.0,-1.0
10.601,0.5,-0.7,-1.0
10.602,0.5,-0.4,-1.1
10.707,0.5,-0.1,-1.1
10.71,0.4,0.2,-1.1
10.711,0.4,0.5,-1.1
10.713,0.5,0.8,-1.1
10.733,0.6,1.0,-1.1
10.802,0.7,1.2,-1.0
10.804,0.9,1.4,-0.9
10.806,1.2,1.5,-0.8
10.807,1.6,1.8,-0.7
10.809,1.9,1.8,-0.7
10.901,2.1,1.8,-0.6
10.902,2.6,2.0,-0.6
10.904,3.0,2.1,-0.7
10.906,2.9,2.1,-0.8
10.907,2.3,1.9,-0.8
11.002,1.6,1.6,-0.7
11.004,0.7,1.2,-0.6
11.005,0.1,0.9,-0.5
11.007,-0.3,0.7,-0.3
11.008,-0.5,0.7,-0.1
11.111,-0.5,0.7,0.2
11.113,-0.2,0.9,0.6
11.114,0.3,1.2,1.0
11.129,0.9,1.7,1.3
11.131,1.6,2.1,1.6
11.202,2.2,2.4,1.7
11.205,2.7,2.4,1.7
11.207,2.9,2.3,1.6
11.209,2.8,2.0,1.4
11.215,2.6,1.6,1.2
11.306,2.5,1.1,1.0
11.308,2.4,0.5,0.8
11.31,2.3,0.1,0.6
11.311,2.2,-0.2,0.5
11.313,2.2,-0.4,0.4
11.399,2.2,-0.6,0.3
11.4,2.2,-0.7,0.3
11.402,2.3,-0.7,0.4
11.405,2.2,-0.5,0.4
11.411,2.2,-0.4,0.4
11.514,2.1,-0.3,0.4
11.515,2.0,-0.3,0.4
11.525,1.8,-0.4,0.4
11.526,1.5,-0.5,0.3
11.529,1.2,-0.7,0.2
11.599,1.0,-0.9,0.1
11.601,0.9,-1.1,-0.1
11.602,0.8,-1.2,-0.2
11.604,0.8,-1.3,-0.4
11.606,0.7,-1.3,-0.5
11.709,0.7,-1.3,-0.6
11.71,0.5,-1.2,-0.8
11.712,0.3,-1.2,-0.9
11.717,0.2,-1.0,-1.0
11.719,0.1,-0.8,-1.0
11.796,-0.1,-0.4,-0.8
11.798,-0.2,0.0,-0.7
11.8,-0.1,0.4,-0.4
11.805,0.3,0.6,-0.4
11.807,0.5,0.6,-0.8
11.904,0.8,0.4,-1.3
11.913,1.1,0.2,-1.7
11.915,1.2,-0.0,-2.2
11.924,1.0,-0.1,-2.6
11.926,0.8,-0.2,-2.8
12.002,0.8,-0.1,-2.9
12.005,0.9,-0.0,-2.8
12.009,1.1,0.1,-2.8
12.011,1.2,0.2,-2.7
12.013,1.3,0.1,-2.6
12.101,1.6,0.0,-2.4
12.103,1.9,-0.2,-2.3
12.105,2.2,-0.4,-2.1
12.106,2.6,-0.6,-1.9
12.108,2.9,-0.8,-1.7
12.211,3.0,-1.1,-1.5
12.213,2.9,-1.3,-1.4
12.214,2.6,-1.5,-1.3
12.216,2.4,-1.5,-1.2
12.223,2.2,-1.4,-1.1
12.298,2.4,-1.4,-0.9
12.3,2.8,-1.3,-0.6
12.302,3.6,-1.2,-0.2
12.303,4.0,-1.2,0.1
12.399,4.3,-1.3,0.5
12.401,4.3,-1.4,0.9
12.403,3.6,-1.4,1.1
12.405,2.5,-1.3,1.3
12.41,1.3,-1.2,1.3
12.5,0.2,-1.0,1.4
12.502,-0.6,-0.8,1.4
12.503,-0.8,-0.7,1.4
12.505,-0.3,-0.5,1.4
12.507,0.2,-0.4,1.4
12.613,0.8,-0.2,1.4
12.615,1.5,-0.0,1.4
12.617,2.0,0.1,1.3
12.618,2.4,0.2,1.3
12.62,2.4,0.3,1.2
12.697,1.9,0.4,1.1
12.702,1.5,0.4,0.9
12.723,1.5,0.6,1.0
12.737,1.4,0.7,1.0
12.739,1.1,0.9,1.0
12.887,0.9,0.9,0.9
12.889,0.7,0.8,0.7
12.89,1.6,0.5,0.7
12.892,1.6,0.3,0.6
12.896,0.8,0.3,0.3
12.937,-0.0,0.3,0.1
12.939,-0.3,0.3,0.1
12.94,-0.3,0.6,0.1
12.942,-0.4,0.9,-0.1
12.943,0.2,1.2,0.1
13.008,0.5,1.1,0.1
13.015,0.2,1.0,-0.1
13.017,-0.3,0.9,-0.2
13.019,-0.5,0.9,-0.3
13.032,-0.4,0.9,-0.3
13.097,-0.4,0.9,-0.2
13.099,-0.6,0.8,-0.3
13.1,-0.5,0.7,-0.3
13.102,-0.4,0.7,-0.3
13.112,-0.2,0.7,-0.4
13.199,-0.2,0.7,-0.4
13.201,-0.3,0.6,-0.5
13.202,-0.2,0.5,-0.5
13.205,-0.0,0.4,-0.5
13.207,-0.1,0.2,-0.5
13.302,-0.1,0.1,-0.4
13.304,-0.0,0.0,-0.3
13.305,-0.1,0.0,-0.2
13.307,-0.2,0.0,-0.1
13.308,-0.5,0.1,-0.1
13.414,-0.5,-0.0,0.1
13.416,-0.4,-0.0,0.2
13.418,-0.5,-0.2,0.3
13.43,-0.5,-0.4,0.3
13.432,-0.5,-0.5,0.4
13.5,-0.4,-0.7,0.5
13.502,-0.2,-0.8,0.5
13.503,-0.0,-0.8,0.6
13.505,0.2,-0.9,0.8
13.506,0.6,-0.6,0.9
13.595,0.9,-0.8,1.2
13.597,0.7,-0.7,1.5
13.598,0.3,-0.7,1.4
13.605,0.5,-0.4,1.5
13.607,0.9,0.5,1.7
13.695,0.8,0.9,2.2
13.697,-0.8,-0.3,1.9
13.702,-0.9,0.2,2.0
13.704,-0.3,0.3,1.7
13.705,0.0,0.6,1.4
13.808,-0.1,0.9,1.0
13.81,-0.3,0.9,0.7
13.86,-0.1,1.0,0.6
13.862,0.0,1.0,0.7
13.864,-0.2,1.1,0.8
13.92,-0.3,0.9,1.0
13.921,-0.6,0.6,1.2
13.928,-0.8,0.6,1.4
13.929,-1.0,0.4,1.6
13.931,-0.2,0.2,2.0
13.995,-0.1,-1.1,1.9
13.996,-0.3,-1.6,1.6
13.998,-0.0,-0.9,1.1
14.106,-0.3,-1.1,0.8
14.108,-0.2,-2.2,0.3
14.109,0.0,-1.7,-0.6
14.111,-0.7,-1.7,-1.8
14.113,-1.7,-2.0,-3.0
14.114,-2.9,-2.4,-4.0
14.207,-3.5,-1.8,-4.6
14.21,-3.7,-1.1,-4.8
14.222,-2.8,0.0,-4.4
14.223,-0.9,1.1,-3.9
14.233,0.6,1.2,-3.3
14.304,1.1,2.2,-2.3
14.306,1.9,3.3,-1.2
14.307,2.0,3.0,-1.0
14.309,0.8,2.3,-1.0
14.31,-0.1,2.4,-0.5
14.4,-0.4,2.4,-0.0
14.402,-0.4,2.6,0.4
14.403,-0.7,2.9,0.8
14.405,-1.1,2.8,1.1
14.408,-2.7,2.6,0.8
14.501,-2.8,1.7,1.0
14.504,-2.6,1.2,0.8
14.506,-3.4,-0.8,0.4
14.508,-2.7,-0.8,0.1
14.513,-0.8,-1.4,0.3
14.611,0.4,-1.6,0.1
14.626,0.3,-1.7,0.5
14.627,0.0,-1.9,0.3
14.629,-0.3,-2.1,0.2
14.638,-0.4,-2.1,0.3
14.702,0.0,-2.0,0.3
14.704,0.6,-1.9,0.5
14.706,0.5,-1.9,0.7
14.708,0.4,-1.8,0.8
14.713,0.5,-1.5,0.9
14.795,-0.1,-1.4,0.9
14.796,0.0,-0.7,0.9
14.798,-0.3,-0.2,0.8
14.829,-0.2,0.3,0.9
14.831,-0.1,0.8,0.6
14.91,0.5,1.2,0.4
14.912,1.1,1.6,0.2
14.913,1.0,1.6,0.2
14.915,0.2,1.2,0.3
14.916,-0.2,0.5,0.4
14.999,0.0,0.2,0.4
15.001,0.4,0.3,0.5
15.002,0.4,0.3,0.7
15.004,0.6,0.0,0.8
15.006,0.7,-0.2,1.1
15.098,0.2,-0.3,1.1
15.1,0.1,-0.6,1.1
15.105,0.2,-0.6,1.1
15.107,0.2,-0.8,0.8
15.11,0.9,-0.9,1.0
15.196,0.5,-1.1,0.8
15.198,-0.7,-1.7,0.5
15.199,-0.5,-2.5,1.0
15.201,0.1,-2.6,1.7
15.202,-0.9,-2.9,1.8
15.314,-0.8,-3.6,1.6
15.316,-0.5,-3.0,1.4
15.318,-0.2,-2.3,1.3
15.319,0.4,-1.6,1.5
15.333,0.5,-0.9,1.5
15.395,0.5,-0.2,1.3
15.401,0.8,0.3,1.5
15.403,0.6,0.6,1.6
15.404,0.2,0.8,1.6
15.406,0.3,0.8,1.5
15.499,0.7,0.9,1.5
15.501,1.0,0.8,1.5
15.502,1.0,0.6,1.5
15.504,0.9,0.3,1.5
15.506,0.7,0.1,1.5
15.592,0.7,-0.2,1.3
15.594,0.7,-0.6,1.2
15.595,0.6,-0.8,1.1
15.602,0.8,-0.9,1.1
15.716,1.0,-0.9,1.0
15.726,1.0,-0.8,1.0
15.727,1.1,-0.7,1.1
15.729,0.9,-0.5,1.2
15.741,1.0,-0.4,1.2
15.828,1.0,-0.4,1.4
15.829,0.8,-0.5,1.7
15.831,0.7,-0.5,2.2
15.832,0.9,-0.4,2.5
15.837,1.3,-0.0,2.6
15.895,1.8,0.1,2.5
15.897,1.0,-0.1,1.4
15.898,-0.3,-0.3,0.2
15.9,-1.5,-0.5,-1.0
15.902,-3.0,-0.4,-2.0
15.994,-4.6,0.2,-2.8
15.996,-6.6,0.3,-3.2
16.002,-7.7,0.8,-3.0
16.003,-8.2,-0.3,-1.8
16.005,-7.7,-1.3,-0.5
16.11,-6.7,1.4,-0.2
16.113,-4.0,1.6,-0.1
16.119,-0.8,2.4,0.2
16.131,2.5,4.1,0.7
16.132,3.7,5.1,0.9
16.195,3.0,4.6,0.8
16.196,1.9,4.1,1.3
16.198,1.1,4.1,1.5
16.199,0.3,2.9,1.5
16.201,-0.3,2.5,1.5
16.304,0.2,3.5,1.4
16.306,-0.2,4.3,1.1
16.308,-0.9,2.7,1.2
16.31,-1.2,1.6,1.1
16.311,-1.2,2.0,1.5
16.396,-1.3,2.0,1.6
16.402,-1.1,1.7,1.5
16.404,-0.5,1.6,1.5
16.406,-0.2,1.6,1.5
16.407,0.2,1.6,1.3
16.507,0.4,1.4,0.9
16.509,0.1,1.0,0.8
16.522,-1.2,0.6,0.3
16.524,-1.3,0.2,0.2
16.533,-1.3,-0.4,-0.2
16.605,-1.8,-0.8,-0.1
16.607,-0.5,-0.9,-0.3
16.608,0.1,-2.0,-1.0
16.61,0.4,-0.7,-0.4
16.615,0.4,-0.2,-0.1
16.699,-0.1,-0.2,-0.0
16.701,-0.7,0.1,0.3
16.702,-0.7,0.4,0.6
16.704,-0.3,0.2,0.7
16.705,0.3,0.0,0.7
16.799,0.8,-0.5,0.4
16.8,0.7,-0.4,0.4
16.802,0.3,-0.7,0.4
16.804,0.0,-1.1,0.2
16.805,-0.0,-1.3,0.2
16.917,0.3,-1.5,0.2
16.935,0.6,-1.6,0.1
16.937,0.9,-1.7,0.2
16.938,1.0,-1.8,0.2
16.94,1.0,-1.6,0.2
16.998,0.9,-1.4,0.3
16.999,0.7,-1.3,0.3
17.004,0.4,-1.3,0.3
17.006,0.3,-0.9,0.5
17.007,0.1,-0.6,0.8
17.094,-0.1,-0.6,0.9
17.096,-1.1,-0.6,0.4
17.097,-1.8,-0.5,0.4
17.099,-1.5,0.1,0.7
17.101,-0.7,0.6,0.5
17.214,-0.3,1.2,-0.1
17.216,0.0,1.4,-0.3
17.217,0.2,1.0,-0.5
17.219,0.1,0.7,-0.7
17.221,0.1,0.6,-0.7
17.296,-0.1,0.5,-1.1
17.297,0.0,0.5,-1.2
17.299,0.2,0.6,-1.3
17.3,0.7,0.8,-1.3
17.397,1.2,1.0,-1.4
17.399,1.4,0.8,-1.5
17.401,1.4,0.5,-1.5
17.402,1.5,0.4,-1.5
17.404,1.3,0.7,-1.4
17.504,1.0,1.0,-1.1
17.506,0.8,1.1,-0.7
17.508,0.6,1.1,-0.4
17.509,0.3,1.0,-0.2
17.511,0.3,1.2,0.1
17.604,0.2,1.3,0.2
17.614,0.0,1.1,0.4
17.616,-0.3,1.1,0.7
17.618,-0.8,1.3,0.8
17.619,-0.7,1.5,0.9
17.695,0.8,1.1,1.0
17.697,0.3,0.3,0.7
17.702,-0.4,0.0,0.6
17.703,-0.4,0.2,0.4
17.705,-0.1,0.2,0.2
17.802,0.8,0.3,0.0
17.804,1.4,0.3,0.0
17.806,1.8,0.3,0.0
17.807,1.2,0.0,-0.2
17.809,1.1,0.1,-0.2
17.899,1.0,-0.1,-0.4
17.901,0.7,-0.4,-0.3
17.904,0.2,-0.6,-0.2
17.906,-0.2,-1.0,0.1
17.907,-0.3,-1.0,0.4
18.009,-0.1,-1.4,0.6
18.012,0.3,-1.7,0.8
18.014,0.3,-1.8,1.2
18.016,0.0,-1.7,1.4
18.034,-0.1,-0.9,2.3
18.097,-0.4,-1.7,1.5
18.098,-1.0,-1.7,0.8
18.103,-0.7,-0.6,1.2
18.105,-0.4,-0.6,1.1
18.106,-0.2,-0.2,1.0
18.203,-0.2,0.5,1.0
18.205,-0.5,0.7,0.9
18.209,-0.1,1.0,0.8
18.211,-0.0,0.9,0.8
18.213,-0.2,1.0,0.6
18.297,-0.1,0.9,0.5
18.298,-0.1,0.6,0.5
18.3,-0.4,0.5,0.5
18.301,-0.7,0.4,0.4
18.303,-0.6,0.2,0.7
18.412,0.2,0.1,0.7
18.414,0.1,-0.4,0.8
18.422,-0.8,-0.6,0.8
18.433,-1.5,-0.8,0.8
18.434,-1.6,-1.0,0.9
18.497,-2.1,-1.2,0.7
18.498,-3.4,-1.7,0.8
18.5,-2.4,-2.0,1.0
18.502,-1.5,-1.9,1.0
18.51,-0.9,-2.3,0.9
18.596,-0.7,-2.5,0.7
18.598,-0.2,-2.0,1.1
18.599,0.4,-1.7,1.6
18.601,0.6,-1.1,1.7
18.609,0.2,-0.6,1.8
18.694,0.6,-0.3,2.3
18.696,-0.4,-0.4,2.3
18.703,-0.4,0.5,2.2
18.706,-0.1,0.2,2.1
18.708,1.0,0.7,1.3
18.816,1.1,0.9,1.0
18.818,2.6,1.2,1.9
18.831,2.2,1.2,1.4
18.832,2.2,0.8,2.2
18.834,1.0,0.2,2.6
18.892,1.0,-0.1,2.8
18.897,0.6,-0.5,2.8
18.899,0.4,-0.7,2.8
18.9,0.3,-0.9,2.9
18.999,0.8,-1.0,2.6
19.001,1.2,-0.9,2.4
19.002,1.1,-0.9,2.2
19.004,0.8,-1.3,2.2
19.006,0.4,-1.1,2.0
19.102,-0.6,-0.8,1.9
19.104,-0.6,-0.5,1.5
19.105,-0.5,-0.0,1.1
19.107,-1.3,-0.2,0.7
19.109,-1.2,0.1,0.7
19.212,-0.7,0.4,0.9
19.214,-1.0,0.6,0.9
19.228,-0.7,0.3,0.9
19.23,-1.7,0.3,1.0
19.232,-3.0,0.1,0.6
19.299,-3.7,-0.9,0.4
19.301,-3.0,-1.5,0.5
19.304,-2.4,-1.3,0.4
19.305,-1.8,-0.7,0.4
19.31,-1.2,-0.3,0.3
19.395,-0.6,-0.1,0.1
19.396,-0.3,-0.1,-0.2
19.398,0.1,-0.1,-0.5
19.4,0.6,0.4,-0.6
19.401,0.9,0.5,-0.8
19.494,0.7,0.5,-1.0
19.495,0.0,0.6,-1.1
19.501,-1.2,0.7,-1.2
19.504,-2.4,0.6,-1.2
19.505,-2.9,0.4,-1.2
19.613,-3.0,0.8,-1.0
19.631,-2.7,1.3,-0.7
19.633,-2.1,1.6,-0.2
19.634,-1.3,2.6,0.4
19.636,-0.6,3.7,1.1
19.693,0.1,4.8,1.9
19.695,1.0,5.7,2.7
19.701,1.3,6.6,3.3
19.702,1.7,6.7,3.5
19.704,2.4,5.0,3.4
19.8,1.7,3.6,3.0
19.802,0.6,3.1,3.1
19.803,-0.2,2.8,3.2
19.805,-0.8,2.3,2.9
19.807,-0.7,2.2,3.1
19.912,-1.3,-1.5,0.4
19.914,-1.6,-0.9,0.1
19.916,-1.5,0.9,1.1
19.918,0.7,0.5,0.8
19.92,1.3,-0.6,0.7
20.002,0.7,-0.3,0.8
20.004,-0.2,-0.3,0.7
20.005,-0.0,-0.9,0.5
20.007,0.2,-1.6,0.4
20.008,-0.2,-1.6,0.4
20.099,-0.2,-1.6,0.5
20.101,-0.2,-2.0,0.5
20.103,-0.4,-2.1,0.5
20.104,-0.5,-2.1,0.6
20.106,-0.6,-2.1,0.7
20.198,-0.3,-1.8,0.7
20.2,0.1,-1.2,0.7
20.201,0.2,-1.2,0.5
20.203,0.2,-1.7,0.7
20.205,0.0,-1.3,0.9
20.31,-0.1,-0.8,1.0
20.312,0.1,-0.5,1.0
20.314,0.0,0.0,0.9
20.322,-0.2,0.4,1.0
20.333,-0.3,0.6,0.9
20.398,-0.3,0.8,1.0
20.4,-0.2,0.9,1.0
20.401,-0.2,0.9,1.1
20.403,-0.2,0.8,1.1
20.405,-0.1,0.8,1.0
20.496,0.0,0.8,1.0
20.498,0.3,0.5,1.1
20.5,0.2,0.3,1.2
20.501,-0.0,0.2,1.1
20.503,-0.2,-0.1,0.9
20.592,-0.9,-0.3,0.0
20.593,-1.8,-0.8,-1.2
20.595,-2.2,-1.0,-1.8
20.597,-2.6,-1.7,-2.5
20.709,-3.1,-1.7,-3.2
20.712,-2.6,-1.1,-3.7
20.714,-1.2,-0.5,-3.9
20.716,0.5,0.3,-3.8
20.742,1.1,0.6,-3.5
20.793,1.3,1.5,-2.7
20.802,2.3,1.9,-1.6
20.804,2.2,2.2,-0.7
20.805,1.5,2.2,-0.1
20.807,0.9,2.3,0.2
20.902,0.8,2.8,0.5
20.903,1.1,2.7,0.7
20.905,1.1,2.4,0.6
20.907,-0.2,2.6,-0.1
20.908,0.2,2.2,0.5
20.997,0.4,1.8,0.2
20.999,-0.4,1.0,-0.2
21.0,-0.1,0.9,0.1
21.002,0.8,0.6,0.3
21.004,-0.1,-0.3,0.0
21.116,-0.5,-0.7,0.0
21.118,-0.7,-1.3,-0.0
21.119,-0.5,-1.6,0.1
21.13,0.1,-1.7,0.3
21.136,0.3,-2.4,0.5
21.196,-0.3,-2.6,0.7
21.199,-0.7,-2.6,1.0
21.202,-0.4,-3.0,1.1
21.204,0.7,-2.6,1.3
21.206,0.8,-1.5,1.6
21.299,0.8,-1.1,1.7
21.301,0.8,-0.6,1.8
21.302,1.1,0.2,1.7
21.304,1.2,0.7,1.5
21.307,1.1,1.0,1.2
21.393,0.6,1.0,1.0
21.394,0.2,1.0,0.9
21.396,-0.3,0.8,0.9
21.397,-0.5,0.7,0.8
21.399,-0.2,0.6,0.8
21.508,0.0,0.5,0.8
21.509,0.1,0.3,0.9
21.52,0.1,0.2,1.1
21.522,0.2,-0.3,1.1
21.53,0.2,-0.4,1.3
21.597,0.3,-0.7,1.5
21.598,0.4,-0.9,1.7
21.603,0.5,-1.2,1.8
21.605,0.6,-1.4,1.9
21.606,0.7,-1.6,2.1
21.695,0.5,-2.0,2.3
21.697,0.0,-2.3,2.5
21.699,-0.3,-2.0,2.7
21.7,-0.0,-1.9,2.5
21.707,0.7,-1.5,2.3
21.796,0.8,-1.1,2.1
21.798,0.7,-0.7,1.9
21.799,0.6,-0.3,1.6
21.801,0.7,0.2,1.2
21.803,0.6,0.7,1.0
21.911,0.6,1.3,0.8
21.923,0.6,1.6,0.6
21.924,0.4,1.8,0.5
21.926,0.1,1.8,0.3
21.927,0.2,1.8,0.3
21.993,0.3,1.8,0.2
22.001,0.4,1.7,0.2
22.002,0.3,1.6,0.3
22.004,0.2,1.4,0.4
22.006,0.1,1.2,0.5
22.092,0.1,1.0,0.6
22.094,0.2,0.9,0.8
22.096,0.3,0.9,1.0
22.097,0.5,1.4,1.5
22.099,-0.2,1.4,1.7
22.192,0.3,2.2,2.0
22.193,0.2,2.3,1.8
22.195,-0.0,1.3,1.3
22.201,-0.8,-0.2,0.4
22.306,-2.8,-0.4,-0.2
22.318,-4.2,-0.9,-0.7
22.319,-4.7,-1.1,-1.1
22.329,-4.2,-0.7,-1.2
22.331,-3.7,0.3,-1.2
22.4,-3.3,1.6,-1.2
22.401,-3.1,2.3,-1.0
22.403,-2.8,2.6,-0.9
22.405,-2.1,3.0,-0.7
22.41,-1.5,3.2,-0.4
22.493,-1.0,2.8,-0.2
22.495,-0.7,2.1,-0.3
22.496,-0.6,1.6,-0.3
22.498,-0.9,1.1,-0.3
22.499,-1.3,0.6,-0.2
22.605,-1.4,0.2,-0.2
22.607,-1.3,-0.1,-0.1
22.609,-1.5,-0.3,0.0
22.611,-1.3,-0.3,0.2
22.614,-0.8,-0.3,0.3
22.696,-0.4,-0.2,0.4
22.697,-0.2,-0.1,0.4
22.699,-0.1,-0.1,0.4
22.701,0.1,-0.0,0.4
22.703,0.3,-0.0,0.4
22.796,0.5,-0.0,0.4
22.798,0.7,0.1,0.5
22.8,0.9,0.4,0.6
22.804,0.8,0.5,0.8
22.807,0.7,0.3,0.9
22.917,0.3,-0.1,0.8
22.919,-0.4,-0.4,0.7
22.92,-0.5,-0.5,0.7
22.922,-0.4,-0.5,0.6
22.928,-0.3,-0.3,0.7
23.005,-0.1,-0.1,0.8
23.006,0.1,0.1,0.8
23.008,0.3,0.2,0.7
23.019,0.4,-0.1,0.5
23.03,0.2,-0.5,0.3
23.032,-0.2,-0.7,0.1
23.091,-0.5,-0.7,-0.0
23.096,-0.5,-0.7,-0.1
23.097,-0.3,-0.6,-0.2
23.099,-0.0,-0.3,-0.2
23.193,0.3,-0.2,-0.1
23.194,0.4,-0.2,-0.1
23.196,0.3,-0.1,-0.0
23.199,0.2,0.0,0.0
23.2,0.2,0.0,0.1
23.293,0.1,-0.0,0.1
23.294,-0.0,-0.0,0.1
23.3,-0.1,0.1,0.1
23.302,-0.1,0.2,0.2
23.303,-0.1,0.3,0.2
23.412,-0.1,0.3,0.1
23.414,-0.1,0.3,0.2
23.416,-0.1,0.3,0.1
23.427,-0.1,0.1,0.1
23.428,-0.1,0.0,-0.0
23.496,-0.2,-0.0,-0.0
23.502,-0.1,0.0,-0.0
23.503,-0.0,0.1,-0.0
23.505,0.0,0.1,0.0
23.506,0.1,0.2,0.1
23.599,0.2,0.1,0.1
23.6,0.3,-0.0,0.1
23.602,0.2,-0.2,0.1
23.603,0.0,-0.3,0.1
23.605,-0.1,-0.3,0.1
23.693,-0.1,-0.3,0.1
23.695,-0.1,-0.2,0.1
23.696,0.1,-0.2,0.2
23.698,0.2,-0.2,0.2
23.699,0.3,-0.3,0.2
23.809,0.3,-0.4,0.2
23.811,0.4,-0.4,0.2
23.822,0.6,-0.4,0.2
23.824,0.8,-0.5,0.2
23.9,0.9,-0.5,0.3
23.901,0.9,-0.5,0.4
23.906,0.8,-0.5,0.4
23.907,0.7,-0.6,0.4
23.909,0.5,-0.6,0.4
23.996,0.4,-0.7,0.4
23.998,0.3,-0.7,0.3
23.999,0.3,-0.6,0.3
24.001,0.4,-0.5,0.2
24.006,0.2,-0.5,0.2
24.095,0.0,-0.5,0.1
24.097,-0.1,-0.5,-0.0
24.099,-0.1,-0.4,-0.1
24.1,-0.0,-0.4,-0.1
24.102,-0.0,-0.4,-0.2
24.239,-0.0,-0.4,-0.1
24.247,-0.0,-0.3,-0.1
24.287,-0.0,-0.3,-0.1
24.289,-0.1,-0.2,-0.1
24.291,-0.1,-0.2,-0.1
24.34,-0.1,-0.1,-0.1
24.342,-0.1,-0.0,-0.1
24.343,-0.1,0.0,-0.1
24.345,-0.0,0.1,-0.1
24.347,0.0,0.3,-0.1
24.397,-0.1,-0.1,0.0
24.399,0.0,0.1,-0.1
24.402,0.0,-0.0,-0.1
24.404,-0.0,-0.1,-0.1
24.405,-0.1,-0.0,-0.1
24.494,-0.2,-0.1,-0.1
24.495,-0.2,-0.1,-0.1
24.497,-0.1,-0.1,-0.1
24.499,-0.1,-0.1,-0.1
24.5,-0.1,-0.1,-0.1
24.602,-0.1,-0.0,-0.1
24.613,-0.1,-0.0,-0.1
24.615,-0.1,0.0,-0.1
24.617,-0.0,-0.0,-0.1
24.618,-0.0,0.0,-0.1
24.695,-0.0,0.0,-0.1
24.702,-0.0,0.0,-0.1
24.704,-0.0,0.0,-0.1
24.706,-0.0,0.0,-0.1
24.708,0.0,0.1,-0.0
24.8,0.1,0.1,-0.0
24.802,0.1,0.0,-0.0
24.804,0.1,0.0,0.0
24.805,0.2,0.0,0.1
24.807,0.5,0.0,0.2
24.904,0.8,0.0,0.2
24.912,0.7,0.0,0.2
24.914,0.5,0.1,0.1
24.915,0.1,0.1,0.0
24.917,0.1,-0.0,0.0
24.992,0.0,-0.1,0.0
24.994,-0.0,-0.1,0.0
25.001,-0.1,-0.1,0.0
25.003,-0.2,-0.1,0.0
25.004,-0.2,-0.1,-0.0
25.096,-0.3,-0.1,-0.1
25.097,-0.2,-0.1,-0.1
25.099,-0.2,-0.0,-0.1
25.101,-0.2,-0.0,-0.1
25.103,-0.2,0.0,-0.1
25.194,-0.2,-0.0,-0.1
25.203,-0.1,-0.0,-0.1
25.205,-0.2,-0.1,-0.1
25.209,-0.2,-0.1,-0.1
25.211,-0.1,-0.0,-0.1
