vertical_Accel_x,vertical_Accel_y,vertical_Accel_z,accel_time_list
2.345,-2.124,-9.372,0.0
2.441,-2.105,-9.27,0.001
0.113,-1.867,-7.707,0.003
3.4,-2.5,-10.2,0.005
1.416,-1.681,-9.658,0.006
0.615,-1.176,-8.408,0.1
2.383,-2.214,-9.391,0.101
1.395,-2.176,-9.448,0.107
2.107,-2.033,-9.753,0.109
2.042,-1.91,-9.421,0.111
1.95,-1.948,-9.425,0.2
1.814,-2.171,-9.157,0.201
1.894,-2.371,-9.097,0.203
1.679,-2.395,-8.89,0.205
1.855,-2.576,-8.728,0.206
1.754,-2.871,-8.577,0.3
1.83,-3.052,-8.615,0.301
2.768,-3.238,-8.484,0.307
1.665,-4.324,-7.632,0.309
-0.324,-0.981,-3.338,0.321
-1.1,1.946,-3.631,0.4
-1.2,0.469,-5.546,0.402
-1.1,2.077,-4.985,0.403
-1.0,3.085,-5.323,0.405
-1.0,3.162,-5.508,0.406
-0.252,4.141,-4.952,0.5
0.26,5.868,-3.211,0.501
0.483,6.823,-2.126,0.503
0.928,7.774,-1.009,0.505
1.098,9.04,-0.453,0.506
2.8,9.6,-0.8,0.606
2.6,9.5,-1.4,0.608
2.273,9.618,-1.027,0.61
1.309,9.927,-0.791,0.611
0.727,10.282,-0.073,0.613
3.133,9.967,3.133,0.711
2.633,9.967,3.633,0.713
2.433,9.967,4.433,0.714
2.2,10.0,5.4,0.724
1.633,9.967,5.833,0.726
5.733,5.833,8.161,0.799
5.247,5.947,8.306,0.801
4.422,6.682,8.355,0.803
3.563,7.076,8.273,0.804
3.016,7.278,8.267,0.806
3.971,3.1,10.618,0.899
3.375,3.367,11.169,0.901
2.871,3.6,11.618,0.903
2.412,3.7,12.053,0.904
2.275,3.867,12.169,0.91
0.7,1.5,13.0,1.006
0.537,1.741,13.074,1.007
0.263,1.859,12.626,1.009
0.2,0.4,12.1,1.011
0.377,0.526,11.83,1.012
0.454,0.639,11.563,1.099
0.445,0.575,10.934,1.101
0.531,0.565,10.393,1.111
0.502,0.673,9.906,1.112
0.536,1.097,9.608,1.114
0.372,1.494,9.316,1.199
0.334,1.724,9.102,1.201
0.409,1.878,8.926,1.203
0.584,2.117,9.153,1.208
0.46,2.357,9.481,1.209
0.251,2.38,9.354,1.299
0.37,2.221,9.21,1.301
0.46,2.357,9.481,1.303
0.55,2.493,9.751,1.304
0.504,2.846,9.812,1.306
0.515,2.796,9.944,1.399
0.696,2.954,9.988,1.4
0.768,3.149,9.904,1.402
0.675,3.053,9.724,1.404
0.641,1.712,9.841,1.499
0.841,1.712,9.641,1.501
0.976,1.565,9.376,1.51
0.951,1.243,9.051,1.512
0.914,1.004,9.014,1.519
0.969,0.82,9.069,1.601
0.992,0.755,9.192,1.603
1.016,0.69,9.316,1.605
1.059,0.488,8.959,1.606
1.082,0.424,9.082,1.608
1.09,0.469,9.59,1.699
1.29,0.569,10.09,1.701
1.298,0.614,10.598,1.706
1.159,0.688,10.259,1.707
1.278,0.551,9.678,1.709
1.386,0.496,9.386,1.799
1.398,0.414,9.098,1.801
1.525,0.322,9.025,1.803
1.453,0.229,9.153,1.805
1.425,0.322,9.125,1.806
1.494,0.441,9.094,1.899
1.471,0.506,8.971,1.909
1.69,0.469,8.99,1.911
1.845,0.284,8.945,1.912
1.992,0.155,9.092,1.914
1.992,0.155,9.092,1.999
2.339,0.025,9.039,2.001
2.271,-0.094,9.071,2.002
2.155,-0.084,8.855,2.004
2.182,-0.176,8.882,2.012
2.618,-0.224,9.018,2.099
2.714,-0.196,9.014,2.101
2.655,0.016,9.055,2.103
2.767,0.033,9.367,2.109
2.755,0.116,9.655,2.11
2.692,0.355,9.792,2.202
2.584,0.41,10.084,2.204
2.412,0.318,10.312,2.206
2.457,0.502,10.157,2.208
1.93,2.079,10.09,2.209
1.696,2.354,10.288,2.299
1.372,2.494,10.216,2.301
1.132,2.851,10.596,2.307
0.672,3.394,11.216,2.309
-0.096,3.946,11.712,2.311
-0.756,4.388,11.931,2.399
-1.07,4.479,11.99,2.401
-1.241,4.271,12.078,2.402
-1.07,3.679,11.69,2.409
-0.898,2.973,10.806,2.41
-0.8,1.156,10.392,2.549
-1.1,1.032,10.324,2.551
-1.5,1.68,10.76,2.552
-2.014,3.69,10.559,2.554
-2.092,4.191,10.223,2.556
-2.199,4.186,10.003,2.627
-2.128,3.694,10.116,2.634
-2.119,3.572,9.842,2.636
-2.306,3.382,9.483,2.638
-2.366,3.024,9.202,2.648
-2.209,2.522,8.774,2.65
-2.071,2.192,8.487,2.652
-0.493,1.188,8.663,2.722
-0.429,1.12,8.361,2.724
-0.397,0.844,8.131,2.726
-0.311,0.654,7.762,2.727
-0.226,1.432,7.464,2.822
0.03,1.213,7.226,2.824
0.115,1.206,7.113,2.825
0.209,1.289,7.179,2.946
0.306,1.417,7.334,2.948
0.36,1.626,7.451,2.949
0.287,1.766,7.832,2.951
0.304,1.945,8.189,2.953
0.455,2.081,8.562,2.954
0.553,1.809,8.917,3.024
0.481,1.549,9.498,3.027
0.498,1.528,9.955,3.029
0.636,1.53,10.06,3.039
0.672,1.36,9.919,3.041
0.953,1.409,10.217,3.124
1.109,1.589,10.679,3.126
1.272,1.86,11.319,3.127
1.489,2.338,12.077,3.129
1.568,2.815,12.73,3.13
1.237,4.918,12.715,3.203
1.047,5.552,13.019,3.205
1.367,3.967,13.933,3.207
1.442,3.889,13.738,3.208
1.911,3.644,12.789,3.211
0.673,2.781,11.818,3.297
0.898,2.327,10.494,3.298
0.931,2.565,9.293,3.3
0.44,3.143,9.019,3.302
-0.187,3.323,9.138,3.401
-0.21,2.736,9.071,3.407
0.091,2.622,8.474,3.409
0.205,2.432,8.015,3.418
0.038,2.07,7.514,3.42
-0.101,2.214,6.897,3.524
0.103,2.159,6.709,3.525
0.315,2.096,6.744,3.527
0.386,2.29,6.659,3.532
0.383,2.331,6.75,3.534
0.318,1.376,7.218,3.625
0.314,1.404,7.314,3.627
0.361,1.275,7.561,3.628
0.492,1.255,8.092,3.63
0.412,1.218,8.412,3.632
0.312,1.218,8.512,3.637
0.363,1.061,8.663,3.699
0.449,0.757,8.649,3.7
0.635,0.453,8.535,3.702
0.886,0.296,8.486,3.704
1.045,0.084,8.345,3.705
1.273,-0.008,8.173,3.797
1.445,0.084,7.945,3.807
1.922,0.249,8.022,3.809
2.206,0.459,8.806,3.81
2.371,0.706,9.471,3.932
2.057,1.102,9.657,3.933
1.906,1.259,9.606,3.935
1.984,1.01,9.784,3.937
1.92,0.963,10.42,4.026
1.784,1.21,11.384,4.028
1.786,-0.302,12.386,4.033
1.728,0.104,12.428,4.035
1.485,0.412,12.685,4.036
0.9,2.436,13.352,4.038
0.5,2.7,13.9,4.04
0.3,2.712,13.584,4.099
0.5,2.308,12.556,4.1
0.7,1.604,11.928,4.102
0.8,1.368,11.476,4.104
0.3,1.764,11.048,4.105
-0.3,2.572,10.604,4.197
-0.8,2.872,10.204,4.199
-1.0,2.692,9.944,4.201
-1.0,2.404,10.028,4.324
-0.7,2.004,9.728,4.325
-0.5,1.536,9.552,4.33
-0.419,0.069,9.381,4.332
-0.754,0.249,8.846,4.334
-1.046,0.151,8.454,4.4
-1.014,-0.102,8.086,4.402
-0.883,-0.34,7.717,4.408
-0.9,0.2,7.4,4.41
-0.865,0.053,7.235,4.412
-0.861,0.025,7.139,4.413
-0.829,-0.094,7.071,4.522
-0.729,-0.094,6.971,4.524
-0.71,-0.131,7.19,4.529
-0.69,-0.169,7.41,4.531
-0.61,-0.031,7.79,4.624
-0.629,0.106,8.271,4.638
-0.773,0.308,8.727,4.648
-0.812,0.482,8.988,4.65
-0.541,0.288,9.159,4.651
-0.175,0.122,9.325,4.653
0.02,-0.137,9.72,4.723
0.071,-0.294,9.871,4.726
0.082,-0.276,10.282,4.728
0.122,-0.351,10.722,4.729
0.11,-0.269,11.01,4.734
0.225,-0.278,11.225,4.823
0.457,-0.298,11.657,4.825
0.465,-0.253,12.165,4.826
0.449,-0.143,12.549,4.828
0.286,0.096,12.786,4.83
0.02,1.915,13.061,4.923
-0.14,2.457,13.581,4.926
-0.083,2.855,13.952,4.928
0.022,2.787,13.767,4.93
0.358,2.184,12.075,4.941
0.804,1.546,10.512,5.022
1.062,1.63,9.386,5.024
0.868,2.249,9.104,5.026
0.314,2.81,10.041,5.027
-0.047,3.252,10.16,5.029
-0.139,3.044,9.483,5.124
-0.099,2.586,8.703,5.13
0.056,2.012,7.869,5.132
0.209,1.478,7.126,5.133
0.429,1.292,6.887,5.135
0.2,2.3,6.6,5.203
-0.096,2.274,6.707,5.205
-0.396,2.674,6.907,5.207
-0.574,3.019,7.152,5.208
-0.504,2.826,7.393,5.21
-0.259,2.715,7.481,5.322
-0.148,2.637,7.304,5.329
-0.259,2.715,7.481,5.331
-0.259,2.715,7.481,5.341
-0.181,2.77,7.337,5.43
-0.063,2.841,7.774,5.431
0.348,2.863,7.796,5.433
0.563,2.959,8.226,5.434
0.733,3.167,8.467,5.436
0.841,3.215,8.681,5.438
1.189,3.078,8.678,5.523
1.556,3.211,8.511,5.525
1.756,3.211,8.411,5.526
2.115,3.096,8.63,5.528
2.037,4.392,8.296,5.53
2.122,4.265,7.77,5.623
1.985,4.136,7.209,5.626
1.969,3.846,7.048,5.632
2.256,2.311,7.711,5.634
2.419,2.27,8.337,5.635
2.404,2.574,9.207,5.723
2.289,2.978,10.478,5.724
1.741,3.815,11.681,5.734
0.885,3.904,11.67,5.736
0.815,3.596,11.03,5.742
0.64,4.345,10.698,5.824
0.595,3.963,10.877,5.826
0.306,3.012,10.732,5.829
0.208,1.986,10.141,5.83
0.343,1.495,9.516,5.832
1.512,2.351,9.11,5.922
1.273,3.106,9.261,5.924
1.033,4.069,9.494,5.925
0.688,4.749,9.59,5.927
0.355,5.08,9.596,6.023
0.027,4.994,9.439,6.024
-0.292,4.767,9.273,6.026
-0.61,4.541,9.108,6.028
-0.624,4.198,8.88,6.029
-0.712,4.81,8.558,6.123
-0.682,4.748,8.63,6.124
-0.589,4.614,8.477,6.134
-0.494,4.557,8.389,6.136
-0.585,4.819,8.236,6.137
-0.49,4.838,8.212,6.224
-0.233,5.033,8.133,6.227
0.114,5.043,8.271,6.229
0.555,4.919,8.256,6.231
1.25,4.938,8.532,6.233
1.885,6.663,7.257,6.323
1.605,6.446,7.048,6.325
1.606,6.075,7.097,6.326
2.052,6.073,7.074,6.333
2.545,5.94,7.078,6.334
2.687,5.721,7.256,6.423
2.667,5.11,6.917,6.425
2.415,5.385,6.574,6.43
2.3,5.6,6.6,6.432
1.126,6.286,6.662,6.434
1.258,6.718,6.973,6.531
1.258,6.718,6.973,6.54
0.953,7.053,7.184,6.542
0.605,7.605,7.368,6.544
0.563,7.723,7.641,6.545
0.2,8.8,6.9,6.623
0.198,9.525,7.353,6.625
0.246,11.25,6.305,6.626
1.831,12.8,4.654,6.631
1.823,13.9,4.115,6.633
1.723,13.8,3.615,6.722
0.422,12.366,2.125,6.724
1.355,11.232,1.758,6.726
1.411,10.783,1.162,6.727
0.738,10.84,0.418,6.729
0.706,11.006,-1.141,6.823
0.22,10.72,-1.504,6.826
0.357,10.757,-1.331,6.828
0.651,10.851,-0.89,6.836
1.086,10.686,-0.737,6.838
-0.525,10.879,-0.083,6.923
-0.592,10.368,0.072,6.925
-0.872,9.255,0.019,6.926
-0.953,8.225,0.198,6.928
-0.762,7.64,0.158,6.93
-0.532,7.411,0.345,7.023
-0.334,7.094,0.677,7.025
-0.026,6.762,0.749,7.026
0.913,6.598,-0.351,7.031
1.063,6.16,-0.51,7.033
0.993,6.063,-0.434,7.123
0.867,6.567,-0.433,7.125
0.891,7.009,-0.373,7.126
1.286,7.425,-0.269,7.128
1.31,7.868,-0.208,7.135
0.97,8.178,0.535,7.224
0.896,8.683,0.548,7.225
0.752,9.309,0.826,7.227
0.657,8.426,0.678,7.228
0.913,7.252,0.757,7.238
1.287,6.948,0.843,7.323
2.27,6.897,0.224,7.325
2.734,7.41,0.253,7.326
2.869,7.92,0.105,7.328
2.835,8.587,-0.128,7.33
2.448,9.185,-0.379,7.423
1.887,9.402,-0.749,7.425
1.69,9.432,-0.892,7.426
1.888,9.879,-0.93,7.428
2.005,10.484,-1.104,7.43
1.412,10.815,-2.685,7.524
1.101,11.06,-2.974,7.527
0.704,11.438,-3.195,7.528
0.444,11.422,-3.344,7.53
0.331,10.847,-3.086,7.532
0.417,10.413,-2.854,7.622
0.255,11.118,-2.982,7.624
0.083,11.987,-3.446,7.629
-0.001,13.44,-3.926,7.642
-0.206,14.542,-4.158,7.725
0.182,13.727,-3.673,7.727
0.483,12.387,-2.846,7.728
0.498,11.581,-2.853,7.73
0.219,10.932,-3.101,7.732
0.106,10.658,-3.142,7.823
-0.077,10.371,-3.396,7.824
-0.347,9.499,-3.634,7.826
-0.479,8.652,-3.448,7.828
-0.132,8.593,-3.04,7.829
-0.52,8.808,-2.925,7.898
-0.727,8.291,-2.309,7.909
-0.795,8.098,-1.569,7.91
0.263,8.263,-0.185,7.913
0.122,8.222,0.011,7.915
0.052,7.952,0.159,8.021
-0.011,7.589,0.344,8.024
-0.044,7.356,0.578,8.026
-0.067,7.133,0.567,8.037
0.004,6.904,0.519,8.125
0.152,6.852,0.359,8.126
0.1,7.0,0.2,8.128
0.1,7.5,0.1,8.13
0.1,8.0,0.0,8.136
0.078,8.778,-0.211,8.138
-0.511,9.134,-2.698,8.223
-0.562,9.457,-2.928,8.224
-0.511,9.734,-2.898,8.226
-0.355,9.917,-2.849,8.227
-0.332,10.102,-2.594,8.229
-0.136,9.996,-2.613,8.323
0.009,10.213,-2.862,8.324
-0.068,10.398,-3.106,8.326
0.117,10.326,-3.423,8.327
0.145,10.717,-3.749,8.329
1.119,10.676,-4.905,8.422
1.433,10.833,-5.033,8.424
1.806,11.443,-5.711,8.434
1.669,12.314,-6.537,8.435
1.573,12.533,-7.513,8.437
1.603,12.671,-7.506,8.523
1.995,11.681,-6.824,8.526
2.328,10.39,-5.722,8.528
2.213,9.533,-5.493,8.53
1.939,8.876,-5.645,8.532
1.434,8.857,-5.969,8.623
1.181,8.924,-6.195,8.628
0.198,7.592,-7.218,8.631
-0.006,6.776,-6.855,8.632
-0.263,6.047,-6.269,8.635
0.111,6.186,-4.923,8.723
-0.011,5.814,-4.277,8.725
0.47,5.162,-3.508,8.728
0.819,5.076,-3.305,8.735
0.944,5.195,-3.321,8.737
0.298,5.647,-3.26,8.829
0.155,5.683,-3.351,8.841
0.089,5.834,-3.298,8.843
-0.236,6.496,-3.513,8.845
-0.277,7.085,-3.545,8.846
-0.34,7.189,-3.732,8.922
-0.34,7.489,-3.832,8.927
-0.315,7.928,-3.917,8.93
-0.641,8.457,-2.677,8.932
-0.399,8.56,-2.574,8.935
-1.022,8.522,-1.489,9.023
-1.042,8.322,-1.129,9.025
-0.98,8.0,-0.86,9.026
-0.46,8.0,-0.72,9.028
0.027,8.233,-0.813,9.03
0.952,8.739,-1.661,9.122
1.116,9.054,-1.78,9.124
1.315,9.194,-1.806,9.126
1.392,9.223,-2.21,9.127
1.547,9.401,-2.366,9.129
1.824,9.63,-2.47,9.222
1.972,10.031,-2.635,9.223
1.945,10.282,-3.018,9.225
1.6,10.7,-3.4,9.231
3.491,10.489,-3.365,9.322
3.164,10.467,-3.653,9.327
2.765,10.679,-3.945,9.329
2.589,10.964,-4.079,9.331
2.492,11.101,-4.258,9.332
2.308,11.299,-4.342,9.422
2.31,11.424,-4.528,9.424
2.071,12.154,-4.902,9.426
1.857,12.98,-5.103,9.427
1.782,13.09,-4.923,9.429
1.71,12.224,-4.428,9.522
1.433,11.296,-3.869,9.524
1.378,10.44,-3.152,9.526
0.981,9.677,-3.13,9.527
0.239,9.57,-3.426,9.529
0.082,9.99,-3.523,9.623
0.177,9.728,-3.159,9.624
0.134,9.208,-2.862,9.626
-0.677,9.247,-1.391,9.628
-0.672,9.056,-0.849,9.629
0.658,8.762,0.113,9.722
0.7,9.28,1.04,9.725
0.832,9.488,1.371,9.727
0.052,9.152,0.459,9.734
0.1,8.7,0.4,9.737
0.88,8.712,-0.44,9.822
0.797,8.187,-0.349,9.824
0.928,7.555,-0.464,9.826
0.837,7.293,-0.518,9.832
0.875,6.857,-0.687,9.833
1.052,6.727,-0.726,9.922
1.185,6.837,-0.743,9.928
1.37,6.903,-0.635,9.93
1.244,6.989,-0.472,9.931
1.144,6.989,-0.672,9.942
2.2,6.52,-1.64,10.021
2.6,7.04,-1.78,10.023
2.52,7.396,-1.972,10.025
2.5,7.8,-2.1,10.03
2.68,8.264,-2.148,10.031
3.16,8.748,-2.336,10.123
3.32,9.776,-2.632,10.126
3.3,10.58,-3.06,10.129
3.3,11.22,-3.54,10.135
3.1,12.12,-4.34,10.137
2.746,13.386,-3.865,10.223
2.582,13.844,-4.46,10.224
2.884,14.089,-4.774,10.226
2.998,14.154,-4.486,10.228
2.835,12.412,-3.681,10.229
1.753,10.333,-3.773,10.322
1.956,9.405,-3.479,10.324
1.7,9.9,-4.9,10.329
0.93,10.838,-5.792,10.341
0.523,10.471,-5.446,10.342
-0.616,9.335,-6.347,10.422
-0.763,8.947,-5.869,10.424
-0.547,8.412,-5.022,10.428
-0.171,7.714,-4.343,10.43
0.02,7.382,-3.716,10.433
-0.069,7.322,-3.624,10.522
-0.508,7.067,-3.673,10.524
-0.502,6.692,-4.018,10.525
-0.594,6.324,-4.345,10.527
-0.384,5.965,-4.153,10.529
-0.306,5.676,-4.155,10.622
-0.304,5.884,-4.237,10.624
-0.531,6.378,-4.576,10.625
-0.478,6.29,-4.798,10.627
-0.39,6.141,-4.808,10.63
-0.021,5.687,-6.048,10.722
0.279,5.867,-6.308,10.724
0.211,6.026,-6.316,10.733
0.226,5.856,-6.069,10.743
0.711,5.886,-5.836,10.744
0.027,6.218,-6.127,10.822
0.156,6.091,-5.996,10.824
0.325,5.664,-5.585,10.825
0.658,5.445,-5.438,10.828
0.865,5.164,-5.305,10.829
0.671,5.127,-5.531,10.921
0.327,5.018,-5.527,10.923
0.453,5.082,-5.513,10.925
1.974,5.504,-5.451,10.931
2.021,6.253,-6.032,11.022
1.368,6.881,-6.773,11.024
1.032,7.519,-7.527,11.025
0.832,8.099,-8.087,11.032
0.447,8.248,-8.081,11.034
0.295,8.317,-7.902,11.123
0.016,9.009,-8.014,11.124
-0.289,9.986,-8.536,11.14
-0.553,10.508,-8.401,11.142
-0.484,10.029,-7.154,11.143
0.007,9.901,-5.364,11.222
0.145,9.331,-5.175,11.224
0.163,8.683,-5.185,11.225
-0.7,7.587,-6.704,11.23
-0.538,6.67,-8.214,11.234
-1.077,6.426,-8.23,11.322
-1.39,6.336,-8.171,11.324
-1.674,6.467,-8.121,11.325
-1.738,6.67,-7.814,11.327
-1.73,6.679,-7.59,11.329
-1.511,6.75,-7.332,11.422
-1.305,6.732,-7.115,11.424
-1.225,6.547,-6.976,11.425
-1.284,6.217,-7.453,11.427
-1.388,6.263,-7.765,11.429
-0.776,5.065,-8.576,11.522
-0.712,4.918,-8.512,11.535
-0.743,4.798,-8.443,11.537
-0.89,4.669,-8.59,11.54
-0.802,4.586,-8.402,11.542
-0.786,4.596,-8.086,11.622
-0.533,3.813,-8.278,11.624
-0.407,3.835,-8.069,11.627
-0.275,3.884,-8.058,11.629
-0.221,3.767,-8.174,11.63
-0.178,3.871,-8.259,11.722
-0.04,3.948,-8.447,11.724
-0.452,2.736,-8.8,11.729
-0.3,2.9,-8.9,11.731
0.016,2.912,-9.2,11.733
0.236,2.952,-9.2,11.822
0.236,2.952,-9.3,11.824
0.168,3.076,-9.6,11.825
0.072,3.104,-9.7,11.827
-0.244,3.092,-9.9,11.828
-0.16,3.38,-10.2,11.922
0.336,3.652,-11.0,11.923
0.528,3.596,-11.9,11.925
0.568,3.376,-13.1,11.927
0.692,3.444,-14.4,11.928
-0.5,-1.032,-15.324,12.028
-0.6,-1.168,-15.076,12.029
-0.392,-2.791,-13.423,12.031
0.181,-2.672,-11.742,12.033
0.472,-2.494,-10.516,12.034
0.23,-2.779,-10.49,12.122
-0.402,-3.227,-11.694,12.124
-0.561,-3.656,-11.717,12.126
-0.7,-3.8,-11.1,12.127
-0.908,-3.709,-10.477,12.129
-0.924,-3.54,-9.127,12.221
-0.611,-3.15,-7.668,12.223
-0.403,-2.941,-6.891,12.224
-0.474,-2.633,-6.479,12.226
-0.627,-2.181,-6.018,12.236
-0.653,-1.271,-5.647,12.326
-0.622,-1.151,-5.578,12.328
-0.698,-1.086,-5.802,12.329
-0.629,-1.206,-5.771,12.331
-0.441,-1.288,-5.859,12.332
-0.314,-1.296,-6.486,12.421
-0.275,-1.222,-6.925,12.423
-0.104,-1.027,-7.196,12.424
0.247,-0.971,-7.747,12.429
0.567,-1.033,-8.367,12.431
0.471,-1.106,-9.071,12.522
0.555,-1.216,-9.355,12.523
0.667,-1.233,-9.667,12.525
0.751,-1.343,-9.951,12.526
0.867,-1.233,-9.467,12.621
0.751,-1.143,-8.551,12.623
0.798,-0.914,-8.098,12.625
1.329,-0.894,-8.229,12.63
1.637,-0.939,-8.437,12.64
1.648,-2.334,-8.543,12.722
1.517,-2.655,-9.052,12.723
1.212,-3.537,-9.635,12.725
0.853,-4.052,-10.16,12.727
0.359,-4.171,-11.078,12.728
0.104,-4.046,-12.112,12.822
-0.1,-4.1,-12.3,12.823
-0.381,-3.928,-12.258,12.83
-0.45,-3.693,-12.251,12.831
-0.254,-3.761,-12.337,12.833
-0.059,-3.829,-12.422,12.921
-0.34,-3.657,-12.381,12.923
-0.427,-3.481,-12.018,12.925
-0.351,-3.52,-11.346,12.931
-0.18,-3.615,-10.761,12.932
-0.08,-3.515,-10.261,13.021
-0.168,-3.451,-10.396,13.023
-0.253,-3.348,-10.44,13.025
-0.435,-3.189,-10.395,13.046
-0.614,-2.99,-10.259,13.047
-0.668,-2.551,-9.796,13.121
-0.712,-2.063,-9.465,13.123
-0.692,-1.891,-9.323,13.125
-0.67,-1.679,-9.09,13.126
-0.652,-1.434,-8.543,13.128
-0.638,-1.23,-8.086,13.221
-0.637,-1.117,-7.589,13.223
-0.727,-0.981,-7.318,13.23
-0.609,-0.822,-7.174,13.231
-0.391,-0.678,-7.026,13.233
-0.289,-1.422,-6.622,13.321
-0.411,-1.478,-6.578,13.329
-0.322,-1.556,-6.656,13.331
-0.344,-1.711,-6.911,13.332
0.689,-2.206,-7.076,13.334
0.737,-2.298,-7.375,13.425
0.779,-2.753,-8.032,13.427
0.874,-2.936,-8.629,13.437
0.937,-2.778,-8.735,13.438
1.0,-2.36,-9.02,13.44
0.989,-2.406,-9.476,13.525
0.942,-2.475,-9.797,13.526
1.032,-2.441,-9.693,13.528
1.221,-2.487,-9.648,13.53
1.521,-2.727,-9.828,13.531
1.521,-3.147,-10.268,13.621
1.742,-3.535,-10.717,13.623
1.884,-4.069,-11.434,13.625
1.537,-4.578,-11.835,13.626
1.432,-4.701,-11.513,13.628
1.411,-4.894,-11.624,13.721
1.457,-6.971,-11.414,13.723
1.716,-7.735,-12.047,13.724
1.927,-8.094,-12.239,13.726
1.99,-7.241,-11.108,13.728
2.09,-6.341,-9.608,13.821
2.271,-6.114,-8.843,13.831
2.151,-6.696,-8.459,13.833
1.608,-7.567,-8.673,13.834
0.812,-7.951,-8.41,13.836
-0.58,-6.623,-7.999,13.921
-0.453,-6.144,-7.234,13.923
-0.051,-6.019,-6.843,13.924
0.29,-5.539,-6.35,13.926
0.334,-5.021,-5.871,13.948
-1.148,-3.811,-5.408,14.021
-1.161,-3.326,-4.741,14.023
-1.283,-3.079,-4.623,14.024
-1.471,-2.963,-4.891,14.026
-1.4,-2.7,-5.2,14.028
-1.348,-2.811,-5.508,14.122
-1.438,-3.047,-5.698,14.123
-1.527,-3.284,-5.887,14.125
-1.732,-3.489,-6.432,14.127
-1.839,-3.674,-7.259,14.132
-1.998,-3.747,-7.778,14.225
-1.714,-3.842,-7.794,14.227
-1.639,-3.874,-8.159,14.228
-1.571,-3.663,-8.191,14.23
-0.974,-1.075,-8.713,14.321
-0.61,-0.897,-8.838,14.323
-0.217,-0.894,-9.13,14.324
-0.116,-1.028,-9.748,14.326
0.99,-1.169,-9.49,14.333
0.836,-2.397,-8.708,14.421
1.142,-2.316,-8.425,14.423
1.369,-2.235,-8.907,14.429
1.456,-2.412,-9.269,14.431
1.544,-2.588,-9.631,14.432
1.529,-2.792,-10.087,14.525
1.517,-2.955,-10.452,14.527
1.605,-3.132,-10.815,14.529
1.387,-3.277,-10.962,14.53
1.05,-3.507,-10.849,14.533
0.9,-1.86,-11.02,14.621
0.8,-1.888,-11.116,14.623
0.8,-1.668,-11.076,14.625
0.9,-2.012,-11.184,14.626
0.8,-2.248,-11.636,14.628
0.8,-2.54,-12.28,14.721
0.4,-2.928,-12.896,14.726
0.2,-3.148,-12.936,14.728
0.2,-2.94,-12.58,14.729
0.1,-2.772,-12.004,14.731
-0.144,-4.112,-10.869,14.821
-0.176,-4.26,-10.473,14.823
-0.674,-4.233,-10.579,14.824
-0.778,-4.187,-10.267,14.826
-0.811,-3.65,-10.068,14.828
-0.938,-3.13,-10.186,14.933
-1.023,-3.026,-10.23,14.934
-1.166,-2.524,-9.902,14.936
-1.435,-2.189,-9.495,14.938
-1.506,-1.882,-9.083,14.947
-1.165,-0.253,-8.935,15.02
-0.961,-0.225,-8.639,15.022
-0.68,-0.263,-8.12,15.024
-0.871,-1.098,-7.529,15.025
-0.807,-0.897,-7.293,15.027
-0.798,-0.858,-7.202,15.123
-0.673,-0.74,-6.827,15.125
-0.456,-0.662,-6.444,15.127
-0.181,-0.779,-6.419,15.128
-0.036,-0.77,-6.764,15.13
1.013,-1.434,-7.068,15.221
1.204,-1.645,-7.289,15.223
1.485,-1.694,-7.587,15.224
1.498,-1.428,-8.055,15.226
1.811,-0.862,-8.323,15.227
1.868,-0.715,-8.73,15.322
2.064,-0.77,-9.14,15.323
2.309,-0.589,-9.779,15.325
2.451,-0.436,-10.072,15.334
2.545,-0.319,-10.238,15.336
1.942,-1.815,-10.677,15.421
2.021,-2.087,-10.848,15.423
1.989,-2.166,-10.796,15.424
2.021,-2.507,-11.288,15.426
1.953,-2.768,-11.721,15.431
1.921,-3.007,-12.288,15.522
1.9,-3.62,-12.84,15.53
2.116,-4.211,-13.026,15.532
2.063,-4.482,-13.085,15.534
1.837,-4.298,-12.375,15.535
1.992,-5.133,-10.727,15.621
2.127,-5.194,-9.839,15.623
2.035,-5.561,-9.512,15.625
1.602,-6.092,-9.618,15.626
1.182,-6.373,-9.135,15.632
0.898,-6.308,-8.682,15.725
0.753,-5.688,-8.178,15.727
0.651,-5.296,-7.459,15.739
0.461,-4.755,-6.751,15.741
0.441,-4.137,-6.367,15.743
0.054,-4.743,-5.691,15.817
-0.9,-5.0,-5.7,15.822
-0.957,-4.839,-5.73,15.823
-1.078,-4.77,-5.465,15.825
-1.183,-4.996,-5.152,15.923
-1.183,-4.996,-5.152,15.925
-1.074,-5.143,-5.478,15.928
-0.896,-5.274,-5.513,15.929
-0.665,-5.191,-5.504,16.022
-0.583,-5.296,-5.552,16.023
-0.5,-5.5,-5.8,16.029
-0.348,-5.787,-5.957,16.031
-0.213,-5.778,-6.161,16.033
-0.174,-5.743,-6.378,16.034
-0.026,-5.557,-6.322,16.12
0.409,-5.548,-6.426,16.122
0.53,-5.717,-6.891,16.131
0.939,-5.865,-7.117,16.133
0.991,-5.652,-7.074,16.135
0.687,-6.651,-6.237,16.22
0.708,-6.568,-6.185,16.222
1.045,-6.222,-6.104,16.23
1.432,-5.873,-6.241,16.232
1.904,-5.684,-6.543,16.233
2.134,-6.196,-6.336,16.32
2.038,-6.174,-6.351,16.322
2.008,-6.355,-6.43,16.323
1.643,-6.74,-6.674,16.325
1.221,-6.975,-6.983,16.327
1.995,-8.055,-6.252,16.42
1.605,-8.825,-6.408,16.423
1.368,-10.288,-6.729,16.425
1.575,-12.325,-6.045,16.428
1.229,-11.571,-6.794,16.43
0.751,-10.249,-6.31,16.52
0.065,-9.335,-5.847,16.53
-0.482,-8.582,-5.076,16.531
-1.076,-8.376,-4.635,16.533
-1.522,-8.722,-4.484,16.535
-2.163,-9.537,-0.473,16.619
-2.241,-9.559,-0.588,16.621
-2.443,-9.957,-1.069,16.623
-2.559,-9.941,-1.512,16.624
-2.678,-10.022,-1.416,16.629
-2.875,-10.025,-1.455,16.72
-2.973,-10.027,-1.475,16.723
-2.798,-10.102,-1.32,16.729
-1.521,-10.281,-0.506,16.731
-1.574,-10.514,-0.562,16.733
-2.7,-10.3,-0.1,16.821
-2.563,-10.237,-0.185,16.823
-2.378,-10.222,-0.111,16.825
-2.13,-10.07,0.048,16.828
-3.373,-9.809,1.291,16.83
-1.684,-9.605,3.499,16.92
-1.556,-9.495,3.321,16.922
-1.43,-9.462,3.208,16.923
-1.238,-9.348,3.19,16.925
-0.888,-9.21,3.358,16.927
-1.876,-8.398,4.48,17.026
-1.2,-7.72,5.54,17.028
-1.174,-7.856,5.569,17.03
-1.037,-7.958,5.995,17.032
-1.053,-8.128,6.241,17.034
-1.084,-8.049,6.294,17.122
-1.195,-8.243,6.518,17.124
-1.053,-8.288,6.861,17.125
-0.984,-8.129,6.854,17.127
-0.811,-8.094,6.524,17.129
-1.054,-5.901,8.303,17.221
-0.866,-5.962,7.985,17.222
-0.636,-6.267,7.802,17.224
-0.416,-7.204,7.513,17.226
-0.289,-8.054,7.562,17.238
0.632,-5.024,9.9,17.324
0.88,-5.16,9.9,17.325
1.734,-3.625,10.445,17.327
2.407,-3.665,10.369,17.328
1.613,-4.433,11.127,17.33
2.117,-2.765,12.042,17.421
2.588,-3.093,12.021,17.428
3.479,-3.168,12.247,17.43
3.978,-2.977,11.895,17.431
3.809,-2.324,11.274,17.52
3.745,-2.138,10.263,17.522
4.845,-0.824,9.461,17.524
5.118,-0.39,8.708,17.525
5.092,-0.362,8.17,17.527
4.955,2.105,7.224,17.62
5.504,2.222,6.645,17.623
4.857,2.916,5.896,17.626
4.856,2.96,5.11,17.628
4.857,2.616,4.696,17.639
2.93,4.143,3.933,17.72
1.78,3.575,3.607,17.722
1.698,2.552,4.528,17.724
1.81,2.113,5.396,17.725
0.376,5.105,3.227,17.727
-1.047,6.906,2.257,17.821
-1.374,5.651,3.86,17.823
-2.106,6.287,2.885,17.824
-2.796,6.109,4.477,17.826
-2.02,7.86,3.7,17.833
-1.926,9.384,1.711,17.931
-2.557,7.918,2.895,17.933
-2.782,7.187,4.053,17.941
-2.227,8.089,3.831,17.943
-2.064,8.355,3.245,17.944
-1.822,7.789,3.978,17.996
-2.395,6.062,5.66,17.998
-2.618,6.318,5.145,18.0
-3.49,5.423,5.719,18.01
-2.727,7.427,14.518,18.019
2.101,11.482,5.811,18.118
-0.689,8.525,11.442,18.123
-1.628,4.289,8.496,18.125
-3.106,7.028,5.923,18.127
-1.116,11.612,5.013,18.222
-2.086,11.925,4.465,18.229
-2.553,9.16,5.502,18.231
-0.698,6.594,8.432,18.233
3.204,5.787,5.364,18.234
0.247,7.46,5.602,18.236
-1.313,8.238,5.709,18.321
0.053,8.54,5.098,18.323
0.187,7.538,6.409,18.324
0.06,7.221,6.294,18.326
-0.021,7.864,5.481,18.327
-0.357,7.472,6.238,18.419
0.33,7.111,6.647,18.421
-0.219,7.457,6.213,18.431
-0.294,7.281,6.696,18.432
-0.423,6.67,6.349,18.434
0.546,7.314,6.498,18.52
0.893,7.782,5.777,18.522
0.909,7.572,5.704,18.524
0.521,7.653,6.068,18.525
1.557,7.983,4.836,18.531
1.304,8.264,4.999,18.62
1.413,7.984,5.222,18.622
1.574,7.932,5.256,18.624
1.345,8.399,5.014,18.625
1.43,8.233,4.943,18.631
1.235,7.788,5.466,18.72
1.374,7.632,5.156,18.722
1.7,7.9,5.2,18.723
1.627,8.159,5.068,18.73
1.739,8.252,5.265,18.731
1.744,8.408,5.189,18.821
2.024,6.186,3.694,18.843
0.981,9.469,5.73,18.844
5.302,5.282,4.95,18.846
3.274,6.232,2.556,18.848
3.108,5.229,4.698,18.945
4.15,5.054,0.738,18.947
3.735,3.588,5.066,18.948
2.265,5.512,4.434,18.952
4.08,4.44,6.3,18.958
3.208,6.029,6.598,19.025
1.72,7.422,4.095,19.026
2.007,7.038,4.773,19.028
1.402,8.282,2.55,19.03
0.99,8.989,2.652,19.031
1.109,5.904,5.489,19.119
1.616,4.358,5.156,19.121
2.647,6.473,3.867,19.123
2.849,8.083,6.435,19.129
1.283,8.302,5.096,19.22
-1.565,4.519,5.961,19.229
-2.664,3.331,7.238,19.231
0.384,10.114,12.173,19.238
-3.907,16.818,8.563,19.239
-5.291,14.505,9.69,19.319
-19.406,25.23,14.04,19.321
9.889,9.172,3.656,19.323
5.117,-6.502,9.804,19.324
-1.184,14.886,3.727,19.326
1.593,5.518,7.863,19.419
1.534,6.108,6.684,19.421
-0.014,7.437,6.926,19.423
1.558,6.699,6.402,19.424
0.689,7.272,5.756,19.426
0.542,8.801,5.298,19.521
0.234,7.708,5.284,19.523
-0.229,7.45,6.299,19.525
-0.313,7.649,5.503,19.533
-0.681,8.733,5.334,19.537
0.17,7.748,5.03,19.623
-0.533,8.967,5.033,19.625
0.574,8.73,4.526,19.626
-0.174,7.87,4.674,19.628
0.189,9.156,4.511,19.63
0.593,7.737,5.207,19.719
0.67,8.448,4.73,19.726
0.448,9.059,4.452,19.727
0.533,7.933,4.967,19.729
0.452,8.741,4.648,19.731
0.2,8.2,5.1,19.825
0.133,8.433,4.767,19.827
0.111,8.544,4.489,19.828
0.041,8.996,4.459,19.83
-0.015,8.274,4.715,19.832
0.133,8.433,4.767,19.919
0.059,8.704,4.341,19.92
-0.385,8.126,4.685,19.922
0.415,8.826,4.685,19.924
0.119,8.407,5.081,19.934
0.803,8.701,3.963,20.02
1.254,8.618,3.974,20.021
1.008,8.269,5.068,20.023
1.384,8.295,4.384,20.025
1.486,8.562,4.026,20.026
1.551,8.476,4.911,20.125
1.533,7.767,6.433,20.127
2.782,7.191,5.122,20.128
7.376,8.538,4.056,20.13
6.36,4.98,-3.9,20.132
3.66,4.88,5.6,20.219
4.718,0.809,4.978,20.221
2.5,0.5,4.9,20.223
2.696,2.798,3.956,20.224
4.138,5.161,3.841,20.226
4.077,6.905,5.031,20.319
2.318,6.24,6.446,20.321
2.733,5.106,4.817,20.323
2.753,6.919,3.137,20.337
1.236,7.579,3.991,20.339
1.965,5.867,5.945,20.421
2.769,4.765,5.51,20.423
1.573,7.363,5.776,20.426
2.424,8.888,8.592,20.428
2.443,8.129,11.586,20.429
0.014,7.043,8.029,20.523
0.341,6.88,6.953,20.525
0.889,9.163,8.574,20.526
1.131,8.579,9.641,20.528
0.94,6.229,8.943,20.53
0.837,4.798,8.905,20.62
0.732,6.323,8.854,20.622
0.992,6.994,6.811,20.624
0.184,7.189,7.223,20.626
-0.103,6.669,8.362,20.629
-0.336,5.948,11.22,20.72
0.364,6.848,8.82,20.722
0.3,7.1,7.5,20.731
-1.2,9.1,7.0,20.733
-4.108,8.144,12.86,20.734
-12.429,15.614,12.443,20.819
-4.939,10.569,-2.62,20.821
10.89,3.055,9.937,20.822
1.398,4.751,6.667,20.824
0.133,11.006,4.217,20.92
1.539,6.552,5.065,20.921
1.571,8.658,6.082,20.923
1.666,7.703,5.058,20.925
1.635,8.688,4.966,20.926
1.751,7.537,4.987,21.019
2.047,7.081,6.963,21.021
2.534,8.497,4.242,21.023
0.886,7.765,5.554,21.028
1.619,8.398,4.988,21.03
1.514,7.835,4.946,21.119
0.547,7.768,5.879,21.121
1.44,7.651,5.456,21.139
0.975,7.239,6.67,21.141
1.158,8.195,5.063,21.143
1.252,6.629,6.442,21.219
0.273,7.574,6.352,21.221
0.82,7.445,5.811,21.226
0.318,7.521,5.857,21.228
-0.332,7.916,5.069,21.229
-0.382,7.321,6.157,21.32
-0.338,7.646,6.309,21.321
-0.249,7.517,5.765,21.323
-0.316,7.814,6.273,21.325
-0.006,8.13,5.44,21.326
-0.314,7.837,5.826,21.419
0.035,8.019,6.061,21.421
-0.183,7.61,5.681,21.422
0.099,8.088,6.423,21.424
0.623,8.38,6.441,21.426
0.75,7.906,7.088,21.519
1.283,8.69,5.519,21.529
-0.607,8.718,3.363,21.535
6.937,8.843,5.015,21.537
6.728,1.838,4.424,21.539
1.817,5.51,1.281,21.62
4.484,0.314,7.873,21.621
4.095,-0.958,6.417,21.623
2.833,4.196,3.008,21.624
3.072,4.762,3.576,21.626
3.731,5.073,2.654,21.719
2.442,5.701,3.398,21.721
1.909,5.305,5.39,21.723
1.821,6.256,5.887,21.724
1.136,6.652,6.48,21.729
0.404,6.628,5.92,21.821
-0.468,6.124,6.76,21.823
-1.052,6.236,8.34,21.825
-0.784,7.712,8.98,21.826
-1.504,7.672,8.28,21.829
-1.8,3.9,9.4,21.92
-2.428,1.904,12.36,21.922
7.384,16.988,21.62,21.924
-13.1,18.3,16.5,21.925
-8.1,10.3,4.7,21.927
-14.096,5.298,18.765,22.021
8.08,6.51,2.673,22.023
10.786,2.357,5.371,22.032
3.504,6.098,6.665,22.034
-1.157,8.029,8.286,22.038
1.167,7.316,6.478,22.119
2.447,5.727,8.251,22.121
2.516,6.892,6.161,22.122
2.318,5.541,7.794,22.128
2.59,6.555,6.737,22.13
2.543,7.029,6.186,22.22
1.455,6.822,6.882,22.227
2.106,6.747,6.598,22.229
1.345,6.578,5.918,22.231
1.965,6.567,7.345,22.243
2.008,6.596,6.731,22.319
1.333,6.584,7.122,22.321
1.453,6.773,6.749,22.322
2.398,6.351,7.267,22.324
1.686,5.557,7.571,22.329
0.776,4.632,6.68,22.418
3.864,3.348,8.02,22.42
0.236,6.352,8.58,22.421
1.12,5.34,8.2,22.423
1.332,4.724,7.36,22.523
1.708,4.556,7.84,22.529
1.836,4.552,7.28,22.531
2.352,4.364,8.56,22.533
2.26,6.82,6.7,22.535
2.536,5.952,8.18,22.619
2.2,4.4,7.4,22.622
1.896,5.472,6.18,22.625
1.46,7.22,6.8,22.627
0.352,6.864,8.96,22.637
1.081,6.13,7.843,22.719
2.443,6.489,6.43,22.72
2.232,5.114,7.209,22.722
1.885,3.345,8.087,22.726
2.804,4.489,8.328,22.729
0.765,4.251,9.342,22.82
1.751,3.195,9.277,22.822
1.809,4.407,7.092,22.824
1.295,10.152,5.227,22.826
-0.358,10.577,6.64,22.83
-0.462,7.019,7.322,22.919
2.207,4.567,8.447,22.921
4.962,5.956,6.736,22.922
4.896,6.789,3.769,22.924
4.66,5.6,3.12,22.926
1.368,3.325,5.223,23.019
2.204,3.234,10.36,23.021
0.757,4.381,10.734,23.022
-3.249,5.629,1.795,23.032
-2.902,2.883,2.92,23.033
-1.964,5.84,4.93,23.119
0.898,4.559,5.737,23.121
1.99,4.516,7.265,23.122
2.097,-5.461,12.955,23.128
2.784,-0.106,10.474,23.129
1.327,5.231,8.889,23.219
1.236,4.295,8.425,23.22
0.982,4.433,8.347,23.222
2.112,2.422,8.202,23.228
3.032,1.166,7.497,23.23
1.68,0.056,8.905,23.319
-1.091,-0.798,10.217,23.321
0.136,-1.273,9.144,23.322
1.333,0.533,7.667,23.324
0.378,-1.789,7.822,23.326
0.837,-1.852,8.096,23.419
0.319,-0.926,8.448,23.421
0.056,-0.878,8.644,23.43
-0.288,-2.454,10.271,23.432
-1.772,-4.264,11.618,23.434
-1.337,-6.049,9.743,23.519
-3.786,-5.432,9.559,23.521
-4.396,-5.455,9.776,23.526
-3.936,-3.237,9.787,23.528
-2.109,-3.191,10.827,23.53
-1.013,-6.428,11.426,23.619
-1.15,-5.412,13.305,23.621
-0.216,-6.822,15.062,23.622
-2.367,-8.733,15.167,23.624
-5.775,-3.344,11.948,23.626
-4.977,-11.089,10.562,23.719
3.498,-0.419,10.949,23.721
1.451,-6.84,2.226,23.722
1.632,-11.013,1.366,23.724
2.162,-7.145,5.981,23.725
0.655,-4.902,9.228,23.823
0.506,-5.443,9.353,23.834
1.581,-5.572,7.44,23.836
1.662,-6.345,6.681,23.837
1.028,-6.451,7.064,23.839
1.564,-6.426,7.332,23.919
1.064,-6.126,7.632,23.921
1.0,-6.5,6.9,23.922
1.415,-6.166,7.157,23.924
1.074,-6.13,7.387,23.926
1.283,-5.853,7.391,24.019
1.172,-6.349,7.436,24.02
1.485,-6.434,7.043,24.022
1.004,-5.862,7.502,24.027
0.985,-6.134,7.343,24.029
0.934,-6.594,6.817,24.118
1.179,-6.491,6.989,24.12
0.934,-6.594,6.817,24.122
1.164,-6.126,7.432,24.123
1.498,-4.651,8.676,24.219
1.187,-4.903,7.858,24.229
1.689,-5.353,7.782,24.231
2.013,-4.597,8.342,24.232
1.453,-5.012,8.28,24.234
1.043,-4.289,8.273,24.326
0.438,-5.158,7.845,24.328
1.32,-5.24,8.2,24.329
0.727,-4.227,9.118,24.331
0.695,-5.135,7.636,24.333
0.865,-4.785,8.364,24.419
0.924,-4.784,7.909,24.42
1.224,-5.384,8.209,24.427
1.205,-4.665,8.364,24.428
1.525,-4.905,7.964,24.43
0.804,-4.444,8.709,24.523
1.376,-5.816,7.391,24.525
2.849,-5.989,7.073,24.526
1.424,-2.784,9.609,24.528
1.693,-4.213,8.582,24.53
0.371,-6.318,6.9,24.619
0.227,-6.09,7.667,24.62
-0.018,-5.771,7.8,24.622
1.148,-6.159,7.223,24.628
1.274,-5.779,7.761,24.63
1.185,-4.998,8.253,24.719
0.989,-5.581,8.208,24.72
1.075,-5.356,8.252,24.722
1.626,-5.021,7.739,24.724
0.138,-4.816,8.222,24.725
0.208,-5.789,8.519,24.819
0.525,-5.244,8.748,24.825
0.529,-4.35,8.712,24.828
0.579,-5.539,8.107,24.83
1.235,-6.686,6.349,24.831
6.006,-2.936,11.037,24.918
8.664,-0.437,4.46,24.92
1.844,-2.452,4.859,24.925
2.243,-6.176,2.468,24.927
4.256,-9.248,-0.259,24.954
2.313,-4.272,4.174,25.02
3.217,-3.155,5.329,25.022
2.392,-1.811,5.281,25.024
2.041,-2.346,5.295,25.026
1.661,-3.407,6.687,25.028
1.656,-5.448,7.141,25.119
2.147,-4.482,7.832,25.121
2.036,-4.363,7.44,25.123
1.684,-3.922,8.362,25.124
0.427,-4.797,9.83,25.126
0.349,-5.635,7.914,25.218
0.611,-6.019,6.192,25.22
-0.064,-6.063,6.14,25.222
0.349,-4.935,7.514,25.223
-0.046,-3.895,8.859,25.225
0.939,-8.393,9.513,25.318
-1.007,-12.387,12.372,25.32
-3.669,-3.204,10.094,25.322
-4.149,-9.665,14.086,25.336
-19.261,-14.393,27.413,25.339
-19.21,1.209,21.082,25.418
17.758,-6.443,-7.815,25.42
2.2,-11.6,4.2,25.422
-5.807,0.976,15.348,25.423
3.232,-6.749,6.097,25.425
0.751,-7.366,6.633,25.518
0.109,-4.598,9.296,25.52
1.665,-6.619,6.238,25.521
0.518,-4.696,8.892,25.527
0.905,-5.154,8.009,25.529
1.311,-5.62,7.84,25.618
0.51,-5.309,8.018,25.62
0.09,-4.991,8.382,25.621
1.407,-4.876,8.152,25.623
0.008,-5.587,7.874,25.625
0.663,-5.097,8.394,25.717
1.552,-6.077,7.254,25.719
-0.212,-4.969,8.839,25.732
1.322,-5.04,8.279,25.734
0.233,-5.159,8.419,25.818
-0.469,-3.138,8.975,25.82
0.151,-7.366,10.333,25.821
3.176,-3.139,8.977,25.823
2.249,-7.434,7.867,25.828
6.846,-3.601,5.402,25.933
6.32,2.482,6.736,25.935
3.842,-4.657,5.415,25.94
3.687,1.142,4.817,25.941
3.796,-6.256,2.613,25.943
4.358,-7.047,1.196,26.018
4.017,-4.494,2.992,26.024
4.147,-5.151,4.368,26.026
4.034,-4.589,5.585,26.028
2.874,-5.675,5.634,26.029
0.792,-4.436,5.681,26.118
-0.491,-3.73,7.274,26.12
-0.253,-6.151,6.968,26.132
2.049,-8.017,6.623,26.134
1.615,-4.428,11.038,26.142
-0.149,-6.796,10.467,26.218
-0.733,-6.333,6.933,26.22
0.751,-7.704,3.788,26.222
1.171,-6.156,5.118,26.224
3.372,-8.825,6.943,26.225
-2.118,-10.771,7.6,26.318
-2.908,-9.631,8.067,26.319
-8.227,-8.91,14.633,26.324
-11.882,-7.829,21.0,26.326
-20.371,-5.682,19.6,26.328
9.333,-5.167,8.167,26.418
7.461,-7.757,-0.167,26.419
-0.782,-4.229,8.4,26.421
-3.633,-6.033,10.033,26.423
1.002,-4.992,7.733,26.424
0.101,-4.777,8.091,26.517
0.942,-5.399,8.277,26.529
0.505,-4.283,7.055,26.531
-0.906,-4.164,9.863,26.533
0.369,-4.496,8.406,26.536
-0.23,-3.715,9.104,26.618
-0.537,-3.019,9.13,26.619
-1.189,-4.044,8.511,26.621
0.438,-3.108,9.1,26.629
-0.014,-4.343,8.929,26.631
0.729,-3.414,9.143,26.718
0.004,-3.964,8.714,26.719
0.06,-4.126,9.271,26.721
0.348,-3.101,8.357,26.723
-0.243,-4.929,9.086,26.724
0.716,-3.889,8.629,26.818
0.058,-4.095,8.814,26.819
0.571,-4.386,8.857,26.821
-0.229,-3.186,8.157,26.823
0.431,-4.946,9.3,26.824
0.541,-5.246,7.595,26.926
0.187,-5.028,8.526,26.929
-0.21,-4.458,8.199,26.931
-0.059,-5.146,7.795,26.934
1.25,-4.712,8.705,26.936
0.675,-5.456,7.952,27.018
0.39,-4.558,7.999,27.019
1.167,-5.467,7.733,27.021
1.117,-4.755,8.729,27.027
1.564,-5.337,7.66,27.029
-0.082,-6.529,7.7,27.118
0.312,-5.153,7.6,27.119
-0.194,-5.676,8.3,27.121
0.165,-5.641,7.3,27.123
-0.073,-5.59,7.867,27.124
0.18,-6.178,7.867,27.218
0.449,-5.604,7.133,27.219
-0.153,-5.812,7.8,27.221
0.502,-5.292,8.133,27.222
0.161,-6.357,7.433,27.235
0.524,-5.606,7.8,27.318
0.518,-5.829,7.5,27.326
0.131,-5.775,7.933,27.327
0.682,-4.671,8.4,27.33
-0.449,-6.296,7.967,27.418
0.861,-5.257,8.333,27.419
2.159,-4.665,9.3,27.422
6.039,-2.843,9.367,27.428
5.241,-3.135,5.6,27.43
5.629,-1.717,5.306,27.518
7.971,-4.063,3.154,27.52
2.19,-10.428,-4.935,27.521
0.99,-10.368,-0.855,27.523
-0.071,-3.133,3.791,27.525
-0.228,-5.765,-0.35,27.617
0.496,-3.826,3.362,27.623
-0.48,-5.387,5.974,27.625
0.35,-8.341,5.108,27.627
0.172,-10.065,2.85,27.639
0.252,-8.706,2.329,27.717
-0.371,-10.116,1.923,27.719
3.614,-20.389,4.385,27.721
1.729,-16.516,11.923,27.722
-7.321,-10.145,10.366,27.724
-5.4,-11.2,13.0,27.819
-5.7,-9.8,9.8,27.82
2.0,-9.4,1.1,27.822
4.733,-5.567,3.133,27.828
1.133,-6.167,8.233,27.83
-0.333,-10.933,2.667,27.918
-1.133,-8.133,5.167,27.92
0.133,-8.867,5.033,27.921
1.333,-7.467,3.933,27.923
2.467,-7.533,3.367,27.925
2.481,-7.282,4.301,28.018
0.098,-7.463,2.265,28.02
2.237,-8.735,4.298,28.021
-0.471,-7.386,7.457,28.035
0.131,-9.023,7.992,28.037
0.812,-8.741,7.038,28.118
1.491,-8.143,7.182,28.119
0.326,-8.171,5.855,28.121
1.39,-7.448,6.442,28.126
2.005,-7.773,5.999,28.128
1.412,-8.559,3.459,28.219
0.651,-8.522,4.755,28.221
-0.18,-8.231,4.598,28.223
-0.42,-8.369,5.102,28.224
0.059,-8.094,4.094,28.226
0.406,-7.229,5.129,28.318
-0.888,-7.459,3.659,28.324
0.041,-8.406,5.906,28.326
-1.522,-7.825,6.592,28.328
-0.839,-8.437,4.904,28.329
0.322,-7.675,5.008,28.418
0.457,-7.251,5.584,28.419
0.186,-8.498,5.731,28.431
-0.49,-7.316,6.149,28.433
0.527,-7.104,5.737,28.442
2.512,-8.622,3.347,28.518
4.569,-9.394,3.933,28.519
2.312,-7.822,-4.953,28.521
3.627,-6.765,3.518,28.523
1.865,-7.753,-4.316,28.524
2.423,-7.679,7.5,28.618
-0.055,-6.158,-2.1,28.619
2.094,-7.53,0.3,28.621
1.37,-9.394,0.0,28.623
1.857,-9.798,-0.8,28.624
0.912,-10.569,2.844,28.718
-0.031,-10.75,0.083,28.719
-0.012,-12.231,1.456,28.721
0.824,-12.202,0.966,28.723
1.469,-11.35,1.483,28.724
1.933,-9.567,-2.133,28.82
1.611,-7.462,-4.958,28.831
2.367,-6.073,-5.847,28.833
2.422,-5.944,-7.556,28.834
2.511,-6.062,-7.158,28.836
3.651,-5.511,-6.573,28.918
3.893,-4.613,-7.418,28.919
3.689,-5.369,-7.227,28.921
2.065,-6.685,-6.736,28.923
0.915,-5.675,-8.464,28.924
1.715,-3.761,-12.694,29.017
0.305,-4.854,-14.265,29.018
-3.975,-6.368,-8.923,29.025
-4.958,-5.17,-7.703,29.027
-10.093,-8.895,-10.051,29.118
-2.589,-4.078,-11.022,29.119
8.305,-6.354,-6.365,29.125
7.005,-4.554,-6.565,29.127
2.296,-5.517,-7.428,29.128
1.641,-6.135,-7.476,29.217
1.057,-6.529,-7.686,29.229
1.361,-5.902,-7.563,29.23
3.547,-5.145,-7.392,29.233
2.231,-6.051,-7.082,29.236
1.237,-6.961,-6.898,29.317
1.29,-6.616,-7.406,29.319
1.98,-7.133,-7.212,29.321
1.482,-5.569,-6.951,29.326
1.518,-6.331,-7.149,29.327
1.09,-6.716,-6.806,29.418
0.906,-6.71,-7.116,29.42
1.618,-5.631,-7.549,29.421
1.669,-6.449,-6.918,29.423
0.355,-7.292,-6.447,29.425
0.701,-5.335,-7.27,29.522
0.622,-6.197,-7.093,29.524
0.276,-6.969,-6.937,29.526
-0.336,-5.685,-7.971,29.527
-0.874,-6.401,-7.002,29.529
-0.626,-6.585,-6.76,29.621
-0.082,-5.667,-7.231,29.623
-0.58,-7.011,-7.155,29.627
-1.057,-6.71,-7.459,29.63
-0.644,-7.418,-7.129,29.632
-0.48,-6.416,-9.388,29.717
-0.02,-6.384,-8.512,29.719
-0.16,-3.432,-7.576,29.721
-0.3,-8.84,-6.62,29.727
-1.82,-5.944,-7.092,29.729
1.091,-4.436,-9.57,29.817
3.368,-2.261,-12.338,29.818
5.97,-6.034,-8.924,29.82
3.673,-3.243,-10.753,29.827
1.66,-0.628,-10.004,29.829
1.34,-5.392,-4.856,29.917
0.8,1.34,-8.38,29.919
1.1,-0.72,-7.96,29.92
1.14,-2.772,-6.696,29.922
0.4,-2.82,-6.26,29.934
0.108,-4.348,-4.609,30.017
-0.607,-4.096,-5.115,30.019
-1.852,-3.87,-6.92,30.02
-1.373,-6.613,-5.833,30.022
0.115,-7.825,-4.857,30.024
-0.157,-6.685,-5.991,30.117
-0.446,-7.031,-4.489,30.12
-0.862,-8.012,-2.192,30.122
-2.631,-7.91,-0.843,30.124
-3.078,-7.975,-1.308,30.125
-1.173,-6.868,-3.519,30.217
-0.542,-6.644,-2.894,30.219
-1.385,-8.306,-1.576,30.22
-1.174,-7.823,-2.783,30.222
-0.394,-7.681,-2.396,30.228
-1.211,-7.032,-3.44,30.317
-2.672,-7.217,-4.815,30.323
-4.009,-7.426,-6.072,30.325
-4.84,-5.621,-8.494,30.337
-4.874,-9.923,-6.583,30.34
7.28,-18.855,-6.389,30.417
-8.954,-22.148,-12.805,30.419
-14.32,-19.155,-0.489,30.424
-12.21,-11.983,-8.633,30.425
12.759,-0.511,-6.979,30.427
4.262,0.254,-3.409,30.517
-2.806,-11.13,-8.54,30.519
0.017,-9.31,-5.681,30.52
2.393,-6.062,-5.827,30.525
-0.085,-8.966,-6.471,30.527
2.193,-7.462,-5.127,30.617
2.256,-8.592,-4.811,30.619
2.278,-6.696,-6.455,30.62
2.23,-8.033,-5.243,30.622
2.427,-8.559,-3.968,30.624
1.971,-8.458,-4.782,30.717
2.984,-8.443,-3.504,30.718
2.17,-7.867,-5.557,30.731
2.175,-8.623,-4.081,30.733
2.379,-8.187,-4.78,30.817
1.285,-8.834,-3.929,30.819
1.38,-8.378,-5.105,30.82
1.299,-8.109,-5.075,30.822
1.946,-8.49,-5.239,30.824
2.454,-7.41,-5.561,30.919
3.673,-7.041,-4.232,30.92
5.964,-4.582,-6.644,30.922
10.898,-1.549,-10.578,30.924
2.049,-5.324,4.611,30.925
3.904,-2.664,-4.899,31.017
5.831,0.876,-8.167,31.019
3.828,-3.65,-5.593,31.02
4.812,-4.094,-4.596,31.022
2.639,-4.831,-2.02,31.024
1.518,-5.241,-3.394,31.117
1.482,-5.959,-3.506,31.119
1.441,-7.38,-2.153,31.13
-0.38,-9.09,-1.927,31.132
-0.565,-8.033,-4.355,31.142
1.488,-6.006,-6.504,31.219
2.196,-6.302,-6.535,31.22
1.563,-8.718,-7.612,31.222
3.106,-12.447,-8.398,31.224
3.186,-9.657,-8.371,31.226
2.239,-5.067,-9.401,31.317
0.41,-5.433,-6.307,31.319
-0.467,-6.631,-6.625,31.325
0.233,-9.09,-6.561,31.326
0.867,-10.81,-6.739,31.328
0.9,-9.171,-6.782,31.417
1.3,-9.876,-6.406,31.419
1.5,-10.135,-7.741,31.421
0.133,-9.808,-4.931,31.423
-2.0,-7.288,-4.953,31.424
-2.6,-7.571,-5.482,31.516
-3.867,-7.884,-4.937,31.528
-3.333,-7.098,-3.392,31.537
-1.686,-6.667,-6.047,31.539
-2.703,-5.6,-5.416,31.541
-4.446,-4.652,-0.895,31.617
-0.981,-5.433,-7.534,31.622
-8.826,-17.985,-37.129,31.623
-7.033,-34.904,17.108,31.625
10.044,-0.124,-9.051,31.627
1.864,4.231,-11.162,31.716
0.65,-11.094,-1.612,31.718
-2.635,-9.981,-8.839,31.72
1.281,-6.067,-4.666,31.721
0.824,-9.091,-5.717,31.723
0.213,-8.151,-5.397,31.816
0.208,-7.293,-6.114,31.818
1.364,-7.069,-6.062,31.82
0.166,-8.592,-6.316,31.821
0.601,-7.612,-6.177,31.823
1.153,-8.884,-3.753,31.916
1.637,-7.879,-4.537,31.918
2.513,-8.404,-4.453,31.92
2.079,-9.026,-4.179,31.921
1.846,-7.582,-4.626,31.923
0.275,-8.723,-2.981,32.016
0.987,-9.416,-4.178,32.018
1.095,-8.545,-4.376,32.02
0.933,-8.006,-4.317,32.022
0.748,-8.172,-3.988,32.024
1.833,-9.806,-3.717,32.118
1.18,-8.378,-4.305,32.119
0.788,-8.007,-4.703,32.121
1.743,-8.417,-3.764,32.123
1.995,-8.345,-5.076,32.125
2.114,-8.975,-3.747,32.216
1.291,-7.88,-4.477,32.218
2.401,-8.591,-4.425,32.22
2.49,-7.689,-4.952,32.221
2.344,-8.208,-4.689,32.238
0.887,-8.357,-4.452,32.316
0.5,-8.9,-3.9,32.318
0.991,-8.404,-4.535,32.319
0.974,-8.013,-4.904,32.321
1.061,-8.77,-4.357,32.416
1.278,-8.861,-3.787,32.418
0.63,-7.635,-5.678,32.42
1.443,-8.678,-3.926,32.421
-0.383,-7.918,-3.771,32.428
1.627,-7.937,-7.824,32.516
1.553,-6.573,-2.449,32.518
1.269,-8.265,-8.01,32.524
3.098,-6.051,-2.467,32.526
1.145,-8.378,-7.518,32.527
3.596,-7.602,-1.435,32.616
2.329,-7.486,-8.357,32.618
6.027,-7.237,-0.024,32.62
3.31,-6.645,-5.863,32.621
2.482,-6.559,-5.606,32.633
1.71,-6.945,-7.963,32.716
-1.722,-7.961,-7.641,32.723
-3.735,-7.667,-10.645,32.724
5.698,-7.451,-3.267,32.726
5.382,-7.059,-6.206,32.728
2.066,-6.167,-7.439,32.816
-0.261,-7.167,-5.901,32.818
0.393,-6.467,-7.077,32.819
0.859,-5.9,-6.743,32.821
1.013,-6.533,-6.091,32.826
3.68,-7.26,-2.7,32.917
2.452,-0.564,-3.86,32.918
8.34,6.62,-7.4,32.92
7.264,-2.648,-3.32,32.922
6.66,-5.62,-3.5,32.923
3.132,-6.324,-2.76,33.016
2.048,-6.936,-5.74,33.018
1.54,-6.78,-10.0,33.019
-0.008,-8.344,-8.26,33.031
-0.708,-9.944,-7.16,33.033
-2.826,-15.077,-3.317,33.116
-3.872,-15.417,-8.415,33.118
-8.77,-14.211,-8.047,33.123
-3.762,-10.785,-4.274,33.125
1.87,-8.289,-2.553,33.126
3.07,-4.089,-9.153,33.216
-0.219,-8.057,-3.513,33.218
-1.221,-8.964,-5.781,33.219
-0.08,-5.092,-6.444,33.221
-1.14,-8.016,-6.012,33.223
-2.4,-8.46,-5.72,33.316
-1.594,-9.357,-3.769,33.318
-2.248,-8.624,-4.862,33.319
-1.615,-9.248,-2.384,33.321
-0.849,-9.414,-4.417,33.323
1.016,-8.476,-5.051,33.416
-0.786,-8.229,-3.557,33.418
-0.865,-9.098,-5.096,33.429
0.692,-8.012,-5.224,33.431
0.88,-7.931,-5.761,33.433
1.769,-7.696,-5.992,33.516
-1.104,-8.506,-1.512,33.518
-0.773,-10.11,-3.82,33.519
0.904,-8.794,-5.288,33.522
3.153,-7.52,-4.941,33.528
1.804,-5.829,-6.736,33.618
-0.825,-8.52,-5.404,33.625
-0.509,-7.934,-6.34,33.626
0.848,-7.104,-5.639,33.628
0.587,-7.36,-5.802,33.63
-0.173,-7.949,-6.347,33.716
1.255,-6.963,-5.99,33.718
0.782,-7.312,-5.737,33.72
1.173,-7.551,-6.953,33.721
2.222,-6.818,-7.655,33.723
0.808,-7.496,-5.388,33.817
5.169,-12.289,-8.52,33.829
0.866,-2.705,-13.74,33.831
1.749,-3.186,-9.437,33.834
3.105,-1.74,-7.134,33.843
0.176,-3.246,-6.353,33.917
-1.058,-3.095,-5.363,33.919
1.432,-1.021,-4.647,33.921
3.795,0.437,-4.642,33.923
5.99,2.616,-3.449,33.925
9.687,3.566,-2.468,34.016
13.163,4.146,-0.929,34.017
12.522,4.37,-1.752,34.019
8.954,3.249,-3.143,34.021
7.2,1.4,-3.4,34.121
7.598,1.211,-3.018,34.123
8.4,0.3,-1.4,34.126
8.638,0.614,-0.47,34.128
8.313,0.738,0.077,34.13
7.8,0.652,1.164,34.216
8.1,0.404,1.028,34.24
8.4,0.228,1.496,34.242
8.6,0.048,1.236,34.244
7.6,-0.052,0.536,34.247
8.0,0.112,0.384,34.316
9.4,0.608,0.656,34.318
9.81,0.41,-0.659,34.319
9.752,0.552,-1.079,34.321
10.781,0.881,-0.969,34.323
12.001,0.201,2.986,34.391
12.307,-0.693,2.901,34.393
11.999,-0.901,2.214,34.395
12.096,-0.704,2.257,34.396
12.316,-0.184,2.874,34.398
11.349,-0.451,4.657,34.515
10.69,-0.31,4.069,34.516
10.5,-1.5,2.4,34.518
9.92,-1.44,2.2,34.519
9.293,-1.553,2.133,34.617
9.224,-1.404,2.078,34.629
9.464,-1.084,2.278,34.631
9.331,-0.651,2.344,34.634
9.296,-0.236,2.422,34.637
9.158,0.062,2.311,34.639
8.937,-0.085,3.518,34.717
9.553,0.081,3.748,34.719
9.037,-0.025,3.598,34.722
8.963,-0.295,3.642,34.725
9.568,-0.473,4.019,34.726
10.332,-0.387,4.001,34.816
10.495,-0.222,3.923,34.818
10.242,-0.103,3.775,34.819
9.921,0.008,3.467,34.821
10.074,-0.171,3.536,34.823
10.78,-1.484,3.282,34.915
14.186,-3.029,4.257,34.917
16.92,-3.616,4.418,34.919
14.49,-3.192,5.141,34.924
9.618,-1.135,4.527,34.936
0.23,3.668,-0.577,35.016
-2.126,1.385,-12.338,35.018
-1.813,6.543,-13.819,35.019
-0.651,8.67,-7.177,35.021
1.705,8.082,-5.583,35.023
0.216,6.805,-6.457,35.116
-0.644,7.369,-5.864,35.118
-0.66,6.12,-6.7,35.119
-0.38,3.34,-8.4,35.121
-0.335,3.63,-8.048,35.123
-0.422,3.356,-8.181,35.216
-0.176,2.648,-8.538,35.218
-0.23,2.941,-8.205,35.219
-0.135,2.03,-8.348,35.221
-0.195,2.11,-8.548,35.223
-0.242,1.866,-9.051,35.339
-0.198,2.192,-9.011,35.341
-3.455,0.219,-8.872,35.343
0.389,1.945,-9.132,35.361
1.975,1.498,-8.953,35.363
0.127,0.878,-9.25,35.42
0.586,0.161,-9.325,35.421
0.855,-0.099,-9.854,35.423
-0.59,-0.748,-9.705,35.425
-0.145,-0.776,-9.728,35.426
-0.224,-0.381,-9.138,35.516
-0.837,-0.014,-8.431,35.518
-1.27,-0.748,-8.965,35.524
0.228,-0.938,-9.264,35.526
-0.19,-0.748,-8.905,35.528
0.315,-1.176,-9.008,35.591
0.908,-1.038,-9.004,35.598
0.592,-1.062,-8.996,35.6
0.785,-1.024,-8.792,35.601
0.689,-1.043,-8.894,35.603
0.753,-1.167,-9.227,35.714
1.184,-1.119,-9.642,35.716
0.93,-1.052,-9.415,35.734
0.596,0.719,-9.696,35.817
0.856,0.622,-9.756,35.819
1.304,0.381,-10.104,35.824
0.963,0.585,-9.563,35.826
1.593,0.637,-9.593,35.827
1.667,0.467,-9.667,35.829
1.744,0.578,-9.844,35.893
1.881,0.493,-9.781,35.894
1.622,0.589,-9.722,35.896
1.556,0.722,-9.556,35.897
1.841,0.796,-9.441,35.899
