vertical_Accel_x,vertical_Accel_y,vertical_Accel_z,accel_time_list
1.726,-8.479,-4.221,0.0
1.861,-7.343,-3.337,0.002
3.207,-9.662,-4.058,0.003
1.065,-8.036,-4.384,0.094
2.201,-8.223,-4.837,0.096
0.012,-9.055,-3.005,0.098
3.337,-7.911,-4.789,0.099
1.194,-8.961,-3.679,0.105
2.115,-8.724,-4.316,0.107
1.542,-8.426,-4.374,0.193
1.622,-8.986,-4.074,0.195
1.592,-8.615,-4.105,0.196
1.726,-8.479,-4.221,0.198
1.809,-8.508,-4.332,0.199
1.586,-8.499,-4.321,0.293
1.325,-8.356,-4.284,0.295
1.325,-8.356,-4.284,0.297
1.209,-8.308,-3.932,0.302
1.101,-8.023,-3.637,0.304
0.636,-7.687,-3.353,0.393
0.279,-7.137,-2.863,0.395
-0.134,-6.459,-2.721,0.396
-0.591,-5.708,-2.632,0.398
-1.219,-4.783,-2.537,0.4
-2.131,-3.793,-2.699,0.493
-2.2,-3.5,-2.4,0.495
-2.28,-3.069,-2.071,0.496
-2.649,-2.53,-2.016,0.498
-3.364,-1.343,-2.385,0.503
-3.159,0.712,-3.241,0.593
-4.688,1.218,-3.312,0.595
-6.045,2.549,-3.755,0.596
-7.894,3.359,-5.206,0.598
-10.002,5.98,-6.198,0.6
-0.73,13.581,-3.155,0.694
-2.111,13.557,-2.434,0.696
-2.871,14.357,-4.114,0.71
-3.152,18.095,-6.624,0.712
-2.449,23.643,-6.146,0.723
4.378,20.674,11.934,0.793
2.821,19.163,8.463,0.795
0.423,17.589,7.169,0.796
0.735,14.284,7.304,0.798
1.473,11.958,6.718,0.8
0.529,10.277,5.116,0.893
1.211,10.54,2.376,0.895
0.862,10.911,1.683,0.896
-0.194,10.284,2.426,0.902
-1.11,9.474,3.361,0.904
-3.16,8.209,5.385,0.993
-3.823,7.166,6.594,0.995
-4.121,6.719,7.17,0.996
-4.145,6.832,7.089,0.998
-3.566,7.251,6.758,0.999
-1.256,6.178,7.756,1.093
-0.359,6.196,7.259,1.094
0.037,6.115,6.763,1.096
0.019,5.907,6.681,1.116
-0.57,5.952,7.07,1.118
-0.089,7.137,7.011,1.193
-0.011,7.663,7.789,1.194
0.227,8.276,8.147,1.196
0.316,8.605,7.916,1.198
0.397,8.699,8.037,1.203
1.125,10.481,5.565,1.293
1.66,10.855,4.528,1.295
1.818,11.187,3.832,1.296
1.661,11.429,4.07,1.298
1.665,11.501,4.378,1.3
1.446,12.276,-1.03,1.393
1.697,11.908,-1.511,1.399
1.567,11.455,-2.188,1.401
1.404,11.156,-2.252,1.402
1.354,10.524,-1.67,1.404
-0.269,9.71,-3.035,1.493
-0.363,9.312,-2.982,1.494
-0.312,8.796,-2.806,1.504
-0.314,8.329,-2.357,1.506
-0.316,7.861,-1.908,1.513
-0.388,7.404,-1.694,1.593
-0.484,7.139,-1.592,1.594
-0.606,6.898,-1.353,1.596
-0.851,7.016,-1.276,1.598
-0.927,7.424,-1.363,1.599
-0.511,7.924,-2.873,1.693
-0.503,8.587,-3.342,1.694
-0.615,9.773,-3.862,1.696
-1.059,11.13,-4.402,1.7
-2.003,12.487,-5.142,1.702
-3.529,14.357,-3.914,1.798
-4.261,14.88,-3.931,1.799
-4.118,14.594,-3.559,1.801
-3.561,14.48,-3.431,1.803
-0.841,15.043,-1.885,1.893
-0.284,14.723,-1.806,1.894
-0.233,13.755,-1.788,1.904
-0.788,12.867,-1.855,1.906
-1.42,12.286,-1.905,1.914
0.939,11.79,-2.174,1.993
0.943,11.256,-2.527,1.994
1.123,10.319,-2.552,1.996
1.112,9.805,-2.17,1.998
1.077,9.481,-1.848,1.999
0.004,9.161,0.004,2.093
-0.225,8.855,0.775,2.094
-0.271,8.106,1.229,2.096
0.255,7.051,1.655,2.098
0.547,6.129,1.947,2.104
0.789,5.21,2.499,2.193
0.921,5.191,2.212,2.198
0.987,5.232,2.519,2.2
1.531,4.792,2.623,2.202
2.093,5.066,2.759,2.203
2.547,5.565,2.235,2.293
2.814,5.931,1.869,2.302
3.369,6.557,1.643,2.304
4.039,7.304,1.596,2.305
4.229,8.253,1.947,2.312
4.053,9.535,2.365,2.393
3.816,11.322,2.478,2.394
3.753,12.635,2.465,2.396
4.253,12.435,2.165,2.398
4.718,12.012,2.488,2.399
3.078,12.158,-0.879,2.495
2.877,11.794,0.084,2.496
2.759,11.343,0.615,2.498
1.225,11.034,1.591,2.5
2.215,12.059,1.157,2.502
1.489,11.634,-2.443,2.592
2.058,12.192,-4.424,2.594
1.106,12.883,-6.129,2.596
1.684,14.715,-5.052,2.597
2.274,15.277,-3.371,2.599
-0.606,15.259,-3.818,2.692
-1.306,14.759,-3.018,2.693
-1.79,13.435,-2.669,2.695
-1.688,11.882,-2.863,2.699
-1.349,10.373,-3.447,2.701
-2.602,8.463,-4.131,2.792
-2.289,7.603,-3.529,2.797
-1.921,7.194,-3.042,2.799
-1.749,6.978,-2.677,2.801
-1.551,6.622,-2.323,2.802
-1.9,6.5,-1.6,2.892
-1.802,6.349,-1.467,2.894
-1.776,6.212,-1.492,2.896
-2.137,6.182,-1.712,2.897
-2.422,6.039,-2.041,2.899
-2.333,5.381,-3.232,2.992
-2.495,5.358,-3.537,2.998
-2.754,5.749,-4.084,3.0
-3.085,6.202,-4.663,3.002
-3.461,6.648,-5.153,3.012
-3.847,5.749,-6.566,3.092
-4.44,6.347,-6.898,3.094
-5.443,6.981,-7.187,3.096
-6.126,7.109,-7.272,3.097
-6.132,7.511,-7.44,3.099
-4.44,8.8,-8.08,3.192
-4.324,10.36,-8.368,3.194
-3.92,11.9,-8.44,3.196
-3.876,12.54,-8.532,3.202
-5.16,13.3,-9.62,3.203
0.248,16.66,-7.836,3.292
0.352,15.94,-7.864,3.294
0.84,14.9,-7.88,3.296
1.08,13.2,-7.56,3.297
1.424,12.08,-6.768,3.299
2.498,12.318,-3.805,3.392
2.298,11.718,-3.905,3.393
2.356,10.536,-3.131,3.395
2.233,9.373,-1.902,3.405
1.606,8.866,0.977,3.493
1.557,8.26,0.874,3.498
1.492,7.545,1.03,3.499
1.457,6.96,1.474,3.501
1.191,6.857,1.338,3.503
0.413,6.328,2.77,3.592
0.372,6.468,2.508,3.594
0.402,6.875,2.453,3.596
0.934,7.558,2.351,3.597
0.826,7.757,1.94,3.599
1.135,7.124,3.124,3.697
1.037,7.214,3.514,3.698
1.151,7.545,3.645,3.7
1.518,7.312,3.612,3.702
1.745,7.775,4.075,3.703
1.642,9.045,5.268,3.792
2.108,11.198,5.363,3.794
1.696,13.144,4.549,3.799
0.658,13.855,3.432,3.811
0.402,13.528,3.775,3.812
1.271,13.423,1.216,3.892
1.725,15.622,2.834,3.894
1.368,16.081,4.529,3.895
1.191,14.388,0.501,3.897
-4.02,10.534,1.415,3.899
-2.105,10.226,-5.317,3.996
0.871,10.732,-5.56,3.997
2.31,13.647,-8.866,3.999
-0.396,14.799,-6.926,4.004
-0.773,13.046,-8.816,4.006
-0.978,10.371,-10.706,4.092
-1.266,10.755,-8.253,4.094
-1.877,10.803,-6.135,4.096
-1.642,9.79,-5.916,4.101
-0.282,8.143,-6.091,4.103
-1.71,6.039,-6.833,4.193
-1.524,5.194,-5.9,4.195
-1.275,4.798,-4.733,4.204
-0.935,4.941,-3.6,4.216
-0.488,4.953,-3.1,4.218
-0.511,4.637,-2.811,4.292
-0.275,4.472,-2.895,4.295
-0.551,4.357,-2.611,4.296
-0.989,4.363,-2.189,4.298
-1.524,4.515,-2.084,4.3
-1.328,5.043,-2.462,4.392
-1.532,5.111,-3.54,4.394
-1.64,5.047,-4.998,4.395
-1.445,4.615,-6.277,4.401
-1.185,4.262,-6.774,4.403
-1.238,4.613,-6.409,4.492
-1.706,5.202,-6.468,4.495
-3.083,5.828,-6.585,4.502
-4.994,7.598,-7.632,4.503
-5.534,7.245,-9.23,4.505
-3.438,3.809,-10.713,4.598
-2.268,4.16,-9.689,4.61
-2.306,4.668,-9.302,4.612
-2.36,5.202,-9.053,4.613
-2.489,4.953,-9.23,4.615
-1.753,5.412,-9.6,4.692
-1.922,5.586,-10.233,4.7
-1.71,6.039,-10.433,4.702
-2.125,7.102,-11.467,4.704
-2.396,7.184,-11.767,4.706
0.56,8.754,-9.474,4.792
0.439,8.614,-8.297,4.794
0.648,9.002,-7.457,4.796
0.794,9.008,-7.127,4.797
0.776,8.465,-6.836,4.799
2.374,8.152,-6.981,4.897
2.848,8.104,-7.163,4.9
3.089,7.622,-7.178,4.901
3.019,7.263,-6.77,4.903
2.748,7.104,-6.663,4.905
2.549,6.509,-6.756,4.996
2.36,6.52,-6.6,4.998
2.182,6.442,-6.489,4.999
2.262,6.502,-6.589,5.001
2.276,6.596,-6.322,5.002
1.138,5.955,-7.019,5.092
0.879,6.191,-6.889,5.093
0.711,6.504,-7.255,5.095
0.281,6.772,-8.14,5.101
-1.244,4.976,-9.391,5.192
-1.707,4.913,-8.782,5.194
-2.111,5.269,-8.773,5.195
-2.515,5.625,-9.864,5.197
-2.929,5.451,-10.427,5.204
-4.39,6.109,-9.218,5.292
-4.333,6.641,-9.281,5.295
-4.542,6.843,-9.985,5.297
-4.811,7.08,-10.76,5.299
-4.668,7.249,-10.797,5.302
-4.139,5.173,-11.225,5.392
-4.057,4.49,-10.202,5.397
-4.076,4.176,-9.765,5.399
-3.808,4.475,-10.545,5.4
-4.241,4.541,-11.912,5.402
-7.437,1.179,-11.063,5.498
-7.2,1.86,-10.48,5.5
-6.826,2.082,-9.794,5.501
-6.458,2.133,-9.282,5.503
-6.142,1.987,-9.378,5.505
-6.005,1.648,-8.935,5.592
-5.879,1.786,-8.101,5.598
-5.568,1.829,-7.352,5.6
-5.089,1.963,-6.811,5.601
-4.537,1.919,-6.383,5.603
-4.398,2.353,-5.806,5.692
-4.196,2.006,-5.712,5.693
-3.98,2.031,-5.661,5.695
-3.847,2.08,-5.659,5.697
-4.196,2.006,-5.712,5.706
-4.236,0.905,-6.132,5.792
-4.106,0.443,-6.331,5.797
-4.037,0.429,-6.454,5.798
-3.936,1.205,-6.732,5.8
-3.797,1.029,-6.634,5.802
-3.341,0.424,-7.042,5.891
-2.982,0.348,-7.484,5.893
-2.793,0.233,-7.447,5.894
-2.824,0.095,-7.448,5.899
-3.244,0.195,-8.508,5.901
-4.124,0.395,-9.348,5.995
-5.264,0.795,-9.868,5.997
-6.262,0.948,-10.524,6.004
-7.523,0.871,-11.626,6.006
-8.973,0.833,-12.187,6.008
-7.247,-2.086,-12.755,6.092
-6.197,-1.731,-12.019,6.093
-6.485,-1.664,-11.966,6.095
-7.047,-2.086,-11.655,6.11
-6.957,-2.473,-11.053,6.112
-4.73,-3.377,-11.532,6.191
-5.138,-3.372,-11.115,6.193
-5.272,-3.196,-10.889,6.195
-4.702,-3.074,-11.221,6.196
-3.758,-3.281,-10.943,6.198
-3.162,-2.428,-9.485,6.291
-2.592,-1.506,-8.317,6.293
-2.36,-1.355,-8.164,6.295
-1.808,-1.394,-7.983,6.296
-1.223,-0.983,-7.249,6.298
0.273,0.511,-6.651,6.391
0.227,0.729,-6.669,6.393
0.082,0.507,-6.767,6.395
0.336,0.245,-6.145,6.396
0.373,0.431,-6.211,6.398
-0.204,1.461,-6.453,6.491
-0.573,1.235,-6.789,6.493
-0.621,1.484,-7.143,6.503
-0.601,1.94,-8.038,6.504
-0.648,1.55,-9.154,6.506
-0.193,2.37,-10.359,6.592
-0.522,2.689,-11.422,6.595
-0.944,2.978,-11.844,6.598
-1.526,3.004,-12.193,6.601
-1.515,3.559,-11.681,6.602
0.041,4.922,-10.824,6.691
0.231,5.059,-11.012,6.692
-0.097,5.208,-11.022,6.698
0.02,6.126,-10.125,6.7
0.431,7.78,-8.484,6.791
0.55,7.822,-8.547,6.793
0.806,7.969,-7.961,6.796
1.065,8.24,-7.442,6.799
0.87,8.664,-8.009,6.801
-0.86,6.48,-11.2,6.891
-1.43,6.755,-11.981,6.893
-2.059,7.11,-12.562,6.908
-2.334,6.303,-12.671,6.91
-2.901,6.17,-12.638,6.912
-2.673,3.458,-12.207,6.996
-2.755,2.864,-11.045,6.997
-2.255,2.404,-9.825,6.999
-1.727,2.002,-9.013,7.001
-1.182,1.465,-8.758,7.002
-2.102,0.53,-8.341,7.091
-1.52,1.686,-7.788,7.093
-0.171,1.394,-7.348,7.094
0.346,0.853,-7.522,7.096
-0.044,1.017,-7.238,7.099
-0.21,-0.039,-6.967,7.191
-0.08,-0.222,-6.667,7.193
0.259,-0.365,-6.6,7.194
0.665,-0.241,-6.9,7.196
0.341,-0.635,-7.0,7.202
-1.039,-0.579,-6.723,7.291
-0.843,-0.382,-6.609,7.301
-0.658,-0.443,-6.912,7.303
-1.175,-0.681,-7.28,7.306
-1.836,-0.802,-7.958,7.316
-2.633,-2.167,-8.133,7.391
-3.367,-2.233,-8.867,7.393
-4.822,-2.011,-9.722,7.394
-6.37,-1.585,-10.204,7.396
-8.23,-2.215,-11.096,7.402
-7.198,-4.241,-12.386,7.491
-6.521,-4.215,-11.948,7.493
-5.547,-3.777,-11.332,7.494
-5.439,-3.742,-10.976,7.496
-5.447,-3.877,-10.932,7.498
-5.947,-6.355,-10.208,7.59
-6.465,-6.524,-10.259,7.592
-6.053,-6.545,-8.892,7.594
-5.547,-6.855,-7.908,7.595
-5.302,-7.263,-8.061,7.597
-2.013,-7.334,-9.29,7.691
-1.509,-6.793,-9.108,7.701
-1.179,-6.094,-8.693,7.702
-0.84,-5.502,-8.369,7.706
-0.869,-5.391,-7.739,7.707
-0.36,-4.596,-7.382,7.799
0.031,-4.224,-6.751,7.802
0.013,-3.758,-6.697,7.803
-0.175,-3.595,-6.502,7.805
-0.405,-3.392,-6.843,7.807
-1.009,-2.209,-7.927,7.891
-1.309,-2.409,-8.127,7.897
-1.555,-2.755,-8.564,7.899
-1.727,-3.027,-8.182,7.901
-1.491,-2.391,-7.673,7.902
-0.9,0.2,-8.2,7.991
-0.172,0.226,-8.921,7.993
0.288,0.195,-9.317,7.994
-0.232,0.58,-8.815,7.996
-0.676,0.632,-8.957,8.02
-0.389,0.856,-10.211,8.092
-0.67,-0.185,-11.296,8.099
-1.393,-0.896,-12.574,8.1
-2.367,-1.133,-14.333,8.102
-2.8,-1.9,-15.9,8.104
-2.432,-4.142,-15.475,8.191
-2.13,-2.851,-14.316,8.193
-2.942,-3.888,-12.526,8.195
-3.456,-5.021,-11.415,8.196
-4.498,-4.709,-11.741,8.198
-8.378,-2.475,-11.532,8.291
-8.693,-1.855,-11.901,8.293
-8.531,-2.797,-11.481,8.294
-7.07,-4.266,-11.676,8.296
-6.915,-2.717,-11.212,8.298
-6.275,-4.653,-9.911,8.39
-6.299,-3.39,-9.755,8.392
-5.73,-2.799,-9.515,8.393
-5.091,-3.207,-9.192,8.403
-6.466,-4.299,-6.625,8.491
-5.666,-4.099,-5.925,8.492
-5.036,-3.436,-5.691,8.494
-4.632,-2.866,-5.659,8.496
-4.592,-2.259,-5.435,8.497
-4.223,-3.122,-4.505,8.591
-4.406,-3.024,-4.211,8.592
-4.532,-3.121,-4.053,8.595
-4.44,-3.42,-4.1,8.599
-4.381,-3.727,-4.368,8.601
-4.058,-5.034,-3.606,8.691
-3.863,-5.429,-3.731,8.692
-3.542,-5.706,-3.714,8.694
-3.447,-5.942,-3.458,8.696
-3.121,-6.003,-3.557,8.701
-2.974,-5.961,-3.299,8.791
-3.153,-6.358,-3.442,8.792
-3.284,-7.193,-3.967,8.794
-3.505,-8.236,-3.244,8.818
-4.016,-9.147,-3.153,8.82
-3.982,-10.808,-2.398,8.891
-5.202,-12.01,-2.322,8.893
-6.088,-13.339,-1.765,8.895
-6.753,-14.665,-1.984,8.9
-6.969,-15.347,-1.763,8.902
-2.871,-16.136,1.824,9.011
-2.46,-15.2,1.22,9.013
-1.842,-13.873,1.347,9.016
-1.851,-12.436,1.184,9.018
-2.365,-12.018,0.422,9.019
-0.298,-11.932,0.383,9.09
0.077,-11.915,0.604,9.092
0.536,-12.409,0.677,9.094
1.109,-12.06,1.215,9.095
1.206,-11.096,1.249,9.097
1.134,-10.077,0.794,9.19
1.319,-8.821,-0.07,9.192
1.742,-8.106,-0.074,9.203
1.711,-7.292,-0.402,9.205
1.487,-6.575,-0.981,9.212
1.573,-6.058,-1.982,9.291
1.495,-6.384,-1.516,9.292
1.243,-6.289,-2.071,9.294
1.274,-6.421,-2.179,9.296
1.163,-6.889,-2.011,9.301
0.896,-7.247,-2.113,9.391
0.359,-7.737,-2.223,9.393
0.459,-8.537,-2.423,9.394
0.329,-9.368,-1.912,9.396
0.123,-9.489,-1.731,9.398
-0.691,-9.86,-0.785,9.491
-1.068,-10.645,-0.989,9.493
-1.196,-11.464,-0.934,9.494
-1.57,-11.913,-0.672,9.496
-1.509,-11.04,-0.615,9.497
-1.57,-10.713,-1.172,9.616
-1.566,-11.877,-1.406,9.635
-1.719,-13.479,-1.43,9.637
-2.021,-13.847,-1.613,9.638
-2.123,-13.315,-2.296,9.64
-3.036,-12.079,-3.489,9.711
-3.172,-11.959,-3.177,9.713
-3.364,-12.521,-3.011,9.715
-3.505,-13.211,-2.741,9.716
-3.561,-13.794,-2.187,9.718
-3.695,-13.889,-1.759,9.724
-5.236,-12.609,3.057,9.789
-5.132,-11.796,2.921,9.791
-4.879,-11.136,2.719,9.793
-4.489,-10.168,2.26,9.796
-2.803,-9.471,2.666,9.89
-2.41,-8.505,2.252,9.891
-2.09,-7.795,1.748,9.893
-1.824,-7.162,1.281,9.894
-1.844,-6.653,1.397,9.994
-1.53,-6.396,1.325,10.003
-1.257,-6.229,1.586,10.012
-1.197,-6.156,1.553,10.014
-1.109,-5.951,1.559,10.015
-1.376,-5.461,2.712,10.09
-1.335,-5.536,2.659,10.092
-1.337,-5.699,2.89,10.093
-1.049,-6.278,3.177,10.095
-0.662,-7.219,3.294,10.097
-0.428,-8.265,3.25,10.195
-0.429,-9.347,3.266,10.196
-0.505,-10.008,3.578,10.198
-0.714,-10.042,4.417,10.2
-0.867,-10.527,5.372,10.201
-0.012,-8.947,9.2,10.29
0.594,-8.024,10.2,10.292
0.804,-6.284,10.767,10.294
1.139,-5.443,10.267,10.295
1.041,-4.635,9.5,10.297
2.086,-4.775,9.444,10.395
2.036,-5.963,9.94,10.397
1.653,-5.818,10.168,10.398
1.338,-5.916,9.922,10.4
1.216,-5.878,9.738,10.402
1.263,-8.884,6.667,10.49
0.716,-8.496,6.667,10.492
0.433,-7.967,6.067,10.497
0.276,-7.106,5.7,10.498
0.045,-6.814,5.067,10.5
0.045,-7.649,2.583,10.59
-0.196,-6.981,2.394,10.592
-0.589,-6.902,1.534,10.593
-0.604,-6.819,1.106,10.595
-0.498,-6.84,1.847,10.597
-0.973,-7.026,1.348,10.69
-1.102,-7.077,0.947,10.692
-1.037,-7.157,1.085,10.693
-1.471,-7.75,0.801,10.695
-1.247,-8.841,-0.082,10.705
1.974,-9.302,-0.272,10.79
2.44,-9.693,0.553,10.793
2.453,-9.96,1.207,10.795
2.39,-10.361,1.671,10.797
2.023,-10.606,1.884,10.798
3.206,-10.977,2.466,10.89
3.519,-12.025,3.087,10.892
3.455,-13.181,3.472,10.893
3.891,-13.738,3.457,10.895
4.025,-13.702,3.353,10.897
3.953,-13.389,2.983,10.99
3.772,-12.513,2.57,10.992
3.336,-12.257,2.385,10.993
3.106,-12.577,2.266,10.995
2.791,-13.338,2.657,10.997
3.442,-13.203,4.997,11.091
3.346,-13.141,5.292,11.093
2.975,-13.21,5.457,11.094
2.656,-13.078,5.156,11.111
2.007,-12.617,4.916,11.112
-1.006,-11.817,4.471,11.19
-0.95,-10.782,3.919,11.192
-1.14,-10.02,3.3,11.193
-1.271,-9.314,3.143,11.198
-1.319,-8.624,3.038,11.2
-2.927,-7.738,3.167,11.294
-2.845,-7.604,2.725,11.296
-2.855,-7.656,2.595,11.298
-2.527,-7.758,2.307,11.299
-2.345,-7.424,2.465,11.301
-2.643,-7.498,2.21,11.391
-2.108,-7.045,2.075,11.392
-2.1,-6.7,2.3,11.394
-1.9,-6.4,2.1,11.395
-1.822,-6.249,1.955,11.397
-2.139,-6.006,2.127,11.49
-2.139,-5.906,2.527,11.492
-2.024,-6.578,2.969,11.502
-1.996,-7.52,3.655,11.508
-2.243,-8.186,4.471,11.51
-1.943,-7.863,6.232,11.59
-2.176,-8.423,6.961,11.592
-1.845,-8.72,7.21,11.594
-1.321,-9.043,7.171,11.595
-2.713,-8.004,7.936,11.597
-1.345,-6.882,9.882,11.69
-1.364,-7.155,11.055,11.691
-1.145,-7.082,11.382,11.693
-1.309,-6.836,11.436,11.7
-1.782,-0.782,13.045,11.815
-2.243,-0.199,12.853,11.817
-2.135,0.087,12.317,11.818
-1.352,0.215,12.488,11.82
-1.325,0.619,12.298,11.825
0.6,1.4,11.4,11.892
0.547,0.609,10.384,11.893
0.886,0.197,9.575,11.904
1.212,-0.278,9.002,11.906
1.432,-0.734,8.597,11.908
1.448,-1.25,8.546,11.909
1.205,-1.399,8.408,11.911
1.744,0.238,8.551,11.99
0.954,0.322,8.686,11.992
0.517,0.627,8.608,11.994
-0.077,1.509,8.396,12.09
-0.528,1.881,8.96,12.091
-1.019,2.102,9.449,12.093
-1.47,1.974,9.013,12.095
-1.994,1.466,8.717,12.097
-3.973,3.738,7.485,12.192
-4.07,4.002,7.459,12.194
-3.939,4.026,7.21,12.197
-4.397,3.865,7.274,12.198
-5.059,3.917,7.973,12.2
-5.948,4.332,8.587,12.297
-6.699,4.522,8.691,12.307
-7.017,4.456,8.438,12.308
-6.723,4.348,7.781,12.31
-5.945,4.497,7.161,12.311
-5.092,4.018,6.937,12.391
-4.248,3.685,7.132,12.393
-4.091,3.207,7.892,12.398
-4.591,2.807,8.192,12.4
-4.91,2.603,8.354,12.402
-4.945,3.402,8.134,12.489
-4.304,3.458,7.753,12.491
-3.755,3.498,7.266,12.493
-3.455,3.698,7.066,12.494
-3.334,4.126,7.175,12.496
-2.534,6.302,6.489,12.594
-2.76,6.679,7.006,12.596
-2.881,7.243,7.587,12.597
-2.957,7.772,8.038,12.599
-2.936,8.109,7.957,12.601
-1.598,10.715,4.416,12.69
-1.266,10.705,4.172,12.692
-1.059,10.509,3.93,12.693
-0.791,10.32,3.074,12.695
-0.534,10.195,2.528,12.697
0.817,10.275,-0.779,12.79
0.911,10.117,-0.653,12.792
0.789,9.783,-0.347,12.793
0.843,9.715,-0.236,12.795
0.885,9.977,-0.096,12.797
0.3,9.74,-2.32,12.891
0.3,9.54,-2.22,12.893
0.067,9.307,-2.187,12.895
-0.144,9.562,-2.176,12.896
-0.311,9.936,-2.229,12.898
0.903,10.024,-2.97,12.99
0.777,10.081,-2.999,12.992
0.585,9.979,-3.052,12.993
0.424,9.794,-3.058,12.995
0.357,9.586,-3.168,13.008
-0.528,9.075,-3.83,13.094
-0.549,8.707,-3.577,13.095
-0.472,8.425,-3.27,13.097
-0.512,8.302,-2.819,13.098
-0.56,8.123,-2.451,13.1
-1.527,8.233,-1.647,13.19
-1.648,8.324,-1.562,13.197
-1.773,8.667,-1.753,13.198
-1.936,9.138,-1.899,13.2
-1.857,9.429,-2.214,13.202
-1.909,9.514,-2.497,13.295
-1.976,9.538,-2.619,13.297
-1.84,9.5,-2.62,13.299
-1.788,9.424,-2.582,13.3
-1.266,9.443,-2.211,13.302
-0.926,9.343,-2.091,13.389
-0.297,9.229,-2.134,13.395
0.409,8.886,-3.003,13.397
1.99,10.105,-4.052,13.406
10.879,8.043,-8.46,13.49
8.365,8.869,-8.083,13.492
4.198,9.704,-5.275,13.494
3.044,9.312,-3.143,13.495
2.134,9.433,-3.454,13.5
1.208,8.883,-3.564,13.595
0.81,8.779,-3.789,13.597
0.642,8.116,-4.518,13.599
0.457,7.986,-4.22,13.6
0.479,7.641,-4.322,13.602
-0.259,7.165,-5.3,13.695
0.014,7.322,-5.633,13.696
-0.018,7.829,-5.6,13.698
-0.19,8.073,-5.567,13.7
-0.367,8.167,-5.367,13.701
-0.498,8.275,-5.033,13.79
-0.547,8.112,-5.0,13.792
-0.68,8.145,-5.033,13.793
-0.547,8.112,-5.0,13.803
-0.457,8.139,-5.033,13.81
0.598,8.504,-4.175,13.89
0.707,8.587,-4.138,13.891
0.653,8.593,-4.269,13.893
0.82,8.561,-4.415,13.895
1.067,9.065,-4.108,13.896
1.258,9.984,-2.382,13.99
1.561,8.679,-3.87,13.991
3.101,8.298,-5.663,13.993
4.245,6.61,-8.506,14.0
5.982,5.836,-9.71,14.002
6.404,7.049,-9.567,14.091
6.047,7.088,-10.8,14.093
4.259,7.135,-10.2,14.094
1.678,7.68,-7.133,14.096
1.218,5.471,-6.9,14.098
-0.016,6.377,-6.529,14.189
0.27,6.598,-6.941,14.191
0.042,6.639,-6.665,14.2
-0.154,6.525,-6.23,14.202
-0.465,6.21,-5.716,14.203
-1.791,6.407,-4.792,14.29
-1.986,6.556,-4.965,14.291
-2.447,6.274,-4.687,14.293
-3.004,7.641,-3.581,14.296
-1.647,8.474,-5.087,14.299
-0.127,7.968,-4.979,14.365
-1.642,7.223,-4.26,14.366
-0.479,7.194,-5.593,14.368
-0.371,7.711,-6.83,14.369
-0.511,7.813,-5.199,14.371
-0.38,6.804,-6.038,14.489
-1.125,10.947,-2.689,14.49
0.502,11.479,-4.409,14.492
-1.4,5.3,-6.7,14.494
2.411,4.666,-8.485,14.591
2.315,5.355,-8.613,14.593
2.577,6.168,-8.03,14.604
1.938,6.687,-7.883,14.605
1.779,6.062,-5.894,14.607
1.723,5.632,-7.07,14.609
2.245,4.347,-8.292,14.693
2.898,3.939,-8.837,14.695
2.478,3.527,-8.004,14.696
1.845,4.147,-7.392,14.698
1.694,4.516,-8.51,14.7
2.955,3.453,-8.808,14.789
2.455,2.853,-7.508,14.791
1.12,4.512,-7.433,14.793
-0.247,4.592,-9.645,14.794
-1.155,4.647,-9.692,14.796
-0.669,2.218,-10.649,14.891
-2.1,3.6,-11.6,14.9
-3.778,4.373,-11.896,14.901
-2.994,3.084,-10.89,14.903
-2.508,3.055,-10.947,14.905
2.993,2.296,-10.057,14.989
0.476,4.388,-7.735,14.991
0.484,4.742,-7.946,14.997
2.028,3.564,-10.005,14.998
-0.992,4.169,-8.819,15.089
1.042,6.361,-6.876,15.091
0.803,5.276,-8.87,15.096
-0.069,3.716,-9.687,15.098
2.104,7.734,-5.76,15.099
3.364,4.991,-7.864,15.189
2.171,5.401,-9.393,15.191
1.269,5.084,-7.813,15.193
2.531,7.316,-5.087,15.194
3.027,6.682,-5.127,15.196
1.879,6.162,-6.911,15.289
1.9,5.8,-8.3,15.291
1.13,4.966,-9.276,15.293
0.079,4.898,-9.454,15.299
0.605,5.482,-9.015,15.3
0.801,5.036,-8.543,15.389
1.694,4.081,-8.842,15.391
1.336,3.785,-8.634,15.393
0.702,5.073,-8.086,15.394
0.004,4.646,-8.072,15.396
-1.461,6.285,-7.206,15.489
0.853,7.146,-8.675,15.491
3.862,4.074,-8.884,15.493
-0.248,5.188,-6.785,15.494
-0.564,7.309,-6.336,15.496
1.402,5.917,-7.38,15.589
0.529,5.899,-7.907,15.591
2.026,5.823,-8.637,15.592
0.813,4.862,-9.669,15.594
-1.329,6.601,-7.093,15.596
1.71,7.173,-5.367,15.689
1.21,6.873,-6.667,15.691
0.884,6.404,-6.733,15.692
0.388,7.953,-4.7,15.694
1.237,7.916,-5.433,15.704
0.914,7.522,-6.033,15.789
1.204,8.349,-6.067,15.79
1.431,8.492,-5.633,15.797
4.455,6.086,-6.033,15.799
5.047,3.088,-5.1,15.801
7.216,3.337,-1.438,15.889
5.577,5.653,-1.232,15.891
6.204,5.334,-1.16,15.892
6.17,5.242,-3.603,15.894
5.945,2.636,-4.545,15.896
-0.109,2.378,-5.238,15.989
0.251,3.378,-2.258,15.991
2.731,6.078,-5.118,15.993
5.929,6.422,-7.502,15.998
7.02,4.2,-7.14,16.0
3.633,2.576,-7.405,16.089
1.929,3.63,-6.633,16.091
2.465,4.051,-6.309,16.092
3.658,5.06,-5.365,16.106
3.637,3.958,-5.72,16.107
1.05,3.932,-6.279,16.189
0.148,4.559,-5.693,16.191
1.279,5.898,-6.254,16.192
2.508,7.328,-8.487,16.194
3.023,10.711,-13.875,16.196
0.215,-0.689,-17.234,16.289
-1.787,6.585,-4.655,16.291
0.206,4.679,-7.338,16.292
-0.987,4.685,-9.055,16.294
0.392,4.594,-8.883,16.296
1.433,6.233,-9.867,16.389
1.2,5.6,-8.0,16.391
0.767,4.567,-7.333,16.392
0.5,3.9,-7.4,16.395
-1.2,3.1,-8.8,16.398
-0.8,8.2,-15.8,16.492
1.167,5.167,-22.433,16.494
-3.433,4.767,-14.733,16.506
-0.5,5.3,-12.0,16.508
-2.9,5.8,-16.4,16.509
-3.0,5.5,-16.3,16.593
-4.9,5.1,-15.8,16.594
-1.1,4.4,-10.5,16.596
3.9,6.5,-2.9,16.597
5.133,5.433,-7.967,16.599
3.667,6.467,-7.633,16.688
0.467,6.267,-6.933,16.695
-0.533,5.267,-8.533,16.696
-0.0,5.5,-8.2,16.698
0.733,5.733,-7.467,16.789
0.367,4.167,-7.733,16.794
1.167,6.767,-7.233,16.796
1.467,5.767,-8.033,16.798
0.4,6.0,-7.0,16.799
1.456,7.543,-6.951,16.899
1.49,6.403,-6.754,16.901
0.163,6.971,-6.333,16.913
1.439,7.508,-5.576,16.915
2.41,7.597,-6.246,16.917
-1.296,7.569,-6.589,16.988
0.024,8.329,-4.989,16.99
-0.958,9.204,-4.644,16.992
-0.442,7.596,-5.356,17.001
0.98,8.64,-5.9,17.003
-0.869,7.582,-5.522,17.09
-0.749,7.742,-3.322,17.092
0.371,8.902,-2.322,17.093
2.033,7.767,-7.267,17.095
2.818,7.776,-8.856,17.097
-0.625,8.033,-6.769,17.188
-0.804,8.167,-1.649,17.19
-0.575,9.367,-3.131,17.192
1.667,6.967,-9.767,17.193
0.02,9.067,-4.355,17.195
-0.226,8.568,-3.064,17.289
0.702,9.728,-2.145,17.298
0.638,9.398,-5.004,17.3
0.311,9.338,-3.423,17.301
0.217,9.021,-3.157,17.303
-0.36,8.926,-3.249,17.388
0.217,8.821,-3.057,17.39
1.043,10.453,-4.394,17.392
2.196,9.745,-6.111,17.393
3.253,8.591,0.783,17.395
3.076,6.705,4.048,17.488
2.439,1.236,2.962,17.489
1.916,5.825,4.648,17.491
1.735,4.901,2.61,17.493
2.912,5.09,-2.605,17.494
2.327,8.892,-2.427,17.594
1.455,10.184,-0.055,17.596
2.22,9.337,0.78,17.598
2.584,8.39,0.516,17.6
2.204,7.627,-0.604,17.602
1.14,8.182,-0.823,17.689
1.865,8.654,-1.919,17.691
2.102,13.912,-6.814,17.693
3.581,17.665,-11.746,17.695
2.002,14.612,-11.914,17.697
0.136,11.4,-4.752,17.789
0.568,10.2,-0.876,17.79
2.244,10.3,-3.408,17.792
2.568,9.2,0.124,17.794
4.176,6.7,2.468,17.795
3.402,3.489,4.982,17.889
2.004,3.978,3.364,17.89
1.584,4.678,2.424,17.892
1.502,0.389,6.682,17.894
-0.787,12.433,0.493,17.895
0.0,15.17,0.606,17.99
-1.8,14.987,4.496,17.992
-1.2,13.375,4.436,17.994
0.0,9.783,4.909,17.996
0.3,9.281,3.066,18.007
2.56,6.937,4.299,18.089
0.648,6.215,7.821,18.09
-0.014,7.808,9.265,18.095
-0.406,7.861,7.385,18.097
-0.822,6.556,4.844,18.099
-0.746,5.298,3.884,18.189
-1.356,6.189,2.711,18.19
-2.543,5.068,4.241,18.192
-3.222,7.156,4.244,18.194
-4.062,8.749,4.996,18.195
-1.816,10.072,5.105,18.288
-2.199,8.678,5.976,18.294
-2.36,9.48,5.8,18.296
-1.727,8.913,5.367,18.297
-0.455,9.745,4.136,18.389
-0.182,8.918,4.455,18.391
-0.051,8.609,3.507,18.393
0.253,8.973,1.678,18.394
-0.244,7.336,2.249,18.404
-0.088,7.475,2.234,18.489
0.942,8.303,1.913,18.491
1.597,8.561,1.845,18.493
1.387,7.245,2.481,18.494
0.746,8.022,4.853,18.496
1.357,10.917,5.402,18.592
1.708,7.957,1.795,18.593
1.346,4.922,4.453,18.595
0.683,6.127,2.041,18.598
-3.346,11.178,3.447,18.6
-6.132,15.813,4.652,18.689
-12.315,19.086,3.411,18.69
-8.678,19.691,-1.201,18.692
-3.917,15.627,1.441,18.694
-2.117,14.427,0.541,18.695
-7.54,12.056,3.157,18.788
1.387,14.245,2.281,18.79
3.586,4.566,6.296,18.792
-1.574,7.01,5.139,18.803
-1.899,9.48,3.585,18.805
-0.875,6.876,5.315,18.888
-1.072,9.76,3.634,18.89
-1.413,8.565,4.723,18.892
-1.681,6.903,5.616,18.893
-0.985,8.325,5.457,18.895
-1.331,7.756,5.146,18.988
-1.151,7.753,5.53,18.99
-1.775,9.676,5.215,18.992
-2.047,8.237,4.549,18.993
-1.111,6.254,6.202,18.999
-1.049,8.022,5.255,19.097
-1.69,11.016,2.349,19.098
-2.82,7.869,3.702,19.1
-0.569,6.29,5.657,19.102
-1.145,8.708,3.475,19.103
-1.735,10.324,4.124,19.189
-1.663,8.62,4.086,19.191
-1.282,6.388,5.688,19.201
0.298,8.957,4.29,19.213
-0.818,8.412,6.112,19.215
0.551,9.822,4.155,19.288
-1.92,4.369,7.702,19.29
1.241,9.706,3.006,19.295
0.743,9.449,3.316,19.297
0.937,9.12,2.386,19.299
-0.684,6.928,7.295,19.413
0.817,10.506,4.671,19.415
0.102,11.356,2.952,19.417
-0.562,7.424,6.548,19.418
-0.157,6.114,7.029,19.42
0.413,9.893,4.467,19.489
-0.853,8.527,5.533,19.491
-0.562,8.424,6.048,19.492
-0.617,7.894,6.129,19.494
0.45,8.361,5.462,19.496
4.057,5.686,5.371,19.497
4.561,5.284,8.692,19.613
4.651,2.653,7.727,19.614
3.327,8.28,3.79,19.616
2.894,4.082,2.541,19.618
2.613,3.426,1.12,19.689
2.033,3.73,3.346,19.691
1.938,3.779,5.561,19.692
1.951,3.415,6.545,19.694
2.152,4.924,5.708,19.696
1.839,4.888,5.424,19.702
1.836,5.945,3.645,19.788
1.984,5.755,3.115,19.79
1.896,4.645,3.225,19.792
1.704,4.755,4.075,19.793
1.684,6.755,5.215,19.888
0.504,6.555,6.975,19.893
1.358,7.773,5.493,19.895
2.796,8.745,7.425,19.897
0.202,10.227,6.587,19.988
-1.671,4.936,8.196,20.011
-2.82,6.4,6.24,20.019
-4.84,9.4,1.38,20.021
-7.978,13.527,3.847,20.022
-10.107,17.591,5.751,20.089
-10.716,15.755,7.015,20.098
-14.32,17.7,5.24,20.099
-11.222,13.573,3.553,20.101
-9.62,15.7,6.34,20.103
-4.735,19.831,-1.49,20.188
-0.082,14.337,2.512,20.19
4.786,5.371,6.457,20.196
2.627,6.353,3.651,20.198
-4.329,6.243,5.614,20.199
-3.598,7.989,3.48,20.293
-3.2,9.3,2.6,20.295
-1.734,8.872,6.127,20.297
-1.768,9.439,4.194,20.3
-3.257,6.885,4.091,20.301
-1.515,5.982,6.602,20.388
-0.293,7.409,7.049,20.39
-0.004,10.345,6.525,20.392
-2.06,8.8,4.42,20.398
-1.369,1.364,9.584,20.399
1.055,5.746,7.217,20.488
0.511,8.664,7.246,20.49
0.0,6.6,7.0,20.492
-0.804,2.912,7.451,20.494
3.274,3.085,8.26,20.495
-0.713,9.881,8.843,20.593
-0.877,4.085,8.555,20.594
0.389,2.334,7.202,20.596
2.474,2.662,9.985,20.598
0.662,8.143,8.528,20.599
0.78,6.641,8.722,20.714
-0.446,6.762,8.685,20.722
-0.445,7.065,9.095,20.723
-1.186,5.343,8.029,20.725
0.191,2.174,9.321,20.737
-1.982,5.055,8.682,20.815
0.045,4.136,9.455,20.816
3.467,9.502,10.373,20.818
4.08,6.94,9.5,20.82
2.078,4.135,5.582,20.825
5.085,5.356,6.055,20.827
2.888,1.975,6.076,20.921
0.508,1.815,6.976,20.923
-2.033,0.433,10.967,20.925
-5.328,-1.055,13.724,20.926
-4.298,0.104,8.819,20.928
-3.458,0.984,5.619,21.0
-4.031,-0.863,6.186,21.003
-4.069,-0.337,8.514,21.005
-3.482,2.436,10.981,21.007
-4.204,2.692,10.362,21.008
-2.191,2.862,8.057,21.111
-0.696,1.085,7.923,21.113
0.104,1.685,6.423,21.122
1.809,2.362,7.057,21.124
0.19,1.898,8.09,21.214
0.627,1.325,8.927,21.216
1.378,-1.384,9.178,21.221
4.424,2.665,8.124,21.223
4.806,3.141,6.506,21.225
7.765,-33.947,23.265,21.227
14.0,33.812,29.581,21.288
1.2,-13.371,-12.087,21.29
0.4,-20.408,-4.021,21.291
9.2,1.811,16.791,21.293
-1.4,-5.573,11.933,21.294
1.792,-0.211,12.598,21.387
0.604,-3.694,7.851,21.388
1.309,-4.836,7.277,21.39
-0.462,-3.643,10.709,21.391
0.2,-3.6,12.8,21.487
1.552,-4.359,9.148,21.488
3.278,-2.289,6.922,21.502
5.03,-3.448,5.67,21.504
3.258,-5.188,8.564,21.612
2.363,-8.414,9.256,21.614
2.273,-10.567,8.74,21.619
2.589,-8.547,7.716,21.621
2.675,-5.076,7.637,21.622
0.987,-4.461,6.278,21.714
2.583,-3.848,5.104,21.716
1.422,-7.865,2.17,21.718
-0.748,-6.757,4.587,21.719
-2.287,-3.339,8.522,21.721
-0.417,-6.648,3.704,21.723
-1.735,-4.996,3.109,21.724
-1.229,-3.009,6.487,21.812
-4.607,-0.927,9.022,21.814
-4.58,-3.6,6.44,21.816
-5.68,-5.8,4.24,21.817
-7.769,-5.009,6.207,21.819
-4.931,-5.468,10.328,21.912
-5.808,-6.395,8.815,21.914
-6.636,-7.453,7.313,21.921
-5.763,-5.311,9.711,21.922
-5.515,-2.516,14.476,21.924
-3.691,-1.709,13.327,22.012
-4.036,-0.864,9.791,22.013
-5.255,-2.245,8.236,22.015
-4.427,-0.873,10.118,22.017
-2.989,-1.458,10.575,22.113
-2.975,-1.843,9.43,22.115
-1.436,-0.998,11.294,22.117
-0.643,-1.992,11.777,22.118
0.283,-5.762,13.387,22.12
-1.646,-2.814,10.493,22.238
-2.428,-2.507,10.31,22.239
-1.864,-3.621,9.577,22.241
-0.008,-2.072,7.913,22.247
1.583,-5.544,7.626,22.248
0.807,-5.892,7.844,22.352
-0.675,-2.884,11.361,22.354
-3.343,-3.623,9.722,22.355
-0.278,-4.475,8.032,22.357
0.989,-5.163,8.184,22.359
-3.093,-6.392,5.644,22.365
-1.469,-4.403,8.219,22.366
0.267,-6.124,8.395,22.437
-2.765,-5.349,8.291,22.444
-1.5,-5.5,5.4,22.515
0.873,-8.109,7.209,22.517
-1.033,-5.771,8.791,22.52
-0.247,-7.269,7.109,22.522
0.733,-7.629,6.609,22.524
-0.96,-7.28,5.9,22.53
0.849,-7.267,6.102,22.613
-0.649,-5.633,9.298,22.619
-0.429,-6.586,7.157,22.621
0.116,-8.922,3.867,22.623
0.714,-6.757,5.571,22.633
0.361,-5.159,8.178,22.712
1.249,-6.267,9.902,22.714
0.753,-6.798,7.294,22.716
0.159,-7.894,4.582,22.717
1.502,-6.765,6.796,22.723
0.483,-7.125,7.664,22.812
-0.125,-7.648,6.859,22.814
0.184,-7.345,6.59,22.816
-0.59,-7.897,5.931,22.819
-0.667,-7.43,6.146,22.821
-0.876,-7.843,5.478,22.912
-1.262,-7.679,5.961,22.914
1.729,-7.891,7.493,22.916
2.135,-6.15,5.572,22.921
3.717,-2.075,7.336,22.923
7.449,-4.644,3.864,23.012
5.724,-3.065,3.245,23.014
6.284,-4.985,1.245,23.016
3.187,-4.811,1.291,23.025
2.307,-4.151,1.291,23.037
2.998,-4.781,3.274,23.112
4.082,-8.416,5.001,23.114
5.044,-8.237,7.24,23.116
3.71,-6.597,5.431,23.117
2.077,-4.567,3.085,23.122
0.831,-3.811,2.019,23.212
0.332,-5.12,1.383,23.214
1.392,-3.222,4.295,23.216
1.904,-4.139,6.752,23.217
1.106,-4.958,7.179,23.219
-0.299,-3.732,9.093,23.312
-1.871,-3.284,9.094,23.314
-2.968,-4.147,9.779,23.316
-5.111,-11.284,15.774,23.317
-10.701,-4.068,21.407,23.319
-18.691,-8.209,17.627,23.413
-13.164,-6.336,14.809,23.415
-8.227,-1.773,16.218,23.424
-5.136,-0.564,13.191,23.426
-4.936,-4.464,13.291,23.427
-2.707,-6.345,12.099,23.512
-2.293,-5.492,10.344,23.517
-2.836,-4.579,10.323,23.519
-1.341,-3.996,7.808,23.521
-0.002,-4.927,6.914,23.522
-0.225,-5.616,7.039,23.612
-1.573,-5.457,6.947,23.614
-2.893,-3.955,7.901,23.616
-1.931,-3.697,8.481,23.617
-2.852,-4.859,8.993,23.619
-1.075,-2.273,9.339,23.687
0.273,-6.737,8.304,23.688
0.141,-5.294,8.294,23.69
-1.235,-2.276,8.876,23.692
1.233,-6.793,7.053,23.812
-1.219,-6.875,8.27,23.814
1.581,-5.415,7.05,23.824
-0.152,-7.102,7.856,23.831
-0.795,-6.696,4.088,23.914
-0.262,-5.03,9.921,23.915
0.843,-7.646,6.949,23.92
-0.043,-5.634,8.011,23.922
0.276,-7.939,4.002,23.924
1.395,-6.564,7.732,23.927
0.198,-7.635,6.404,24.012
-1.012,-6.508,6.324,24.014
-0.659,-7.106,7.318,24.016
1.28,-7.047,5.941,24.017
-1.435,-8.99,6.269,24.019
0.222,-7.323,5.951,24.112
-1.911,-7.093,6.506,24.114
-0.684,-8.555,7.61,24.115
-2.321,-8.786,4.312,24.117
-1.401,-6.39,6.137,24.119
0.594,-7.271,5.652,24.212
1.083,-8.156,8.238,24.222
-0.799,-8.022,5.391,24.225
0.36,-6.304,5.918,24.226
-0.219,-8.013,5.455,24.23
-0.54,-7.756,6.692,24.313
-0.72,-7.728,6.296,24.315
-0.92,-7.468,5.976,24.317
-1.32,-7.088,4.316,24.325
-2.24,-7.676,3.632,24.326
-0.59,-8.198,6.221,24.413
-1.238,-7.452,3.949,24.415
-0.66,-7.793,5.784,24.421
-1.243,-7.662,5.083,24.423
-1.552,-6.246,6.172,24.424
-0.353,-7.159,4.582,24.512
2.409,-7.005,6.69,24.514
3.061,-5.234,6.332,24.516
-0.346,-6.152,7.395,24.517
1.696,-4.053,8.593,24.519
0.527,-5.872,5.372,24.612
6.167,-5.48,8.08,24.614
7.095,-5.094,9.194,24.615
4.438,-4.826,5.926,24.617
5.204,-4.265,8.865,24.619
5.852,-7.16,4.864,24.713
5.836,-2.88,3.552,24.715
9.208,-5.14,10.056,24.716
5.648,-4.84,5.636,24.722
7.256,-7.58,3.492,24.723
6.7,-7.892,1.338,24.812
6.557,-4.476,4.821,24.814
6.429,-3.703,5.784,24.815
5.671,-7.389,5.555,24.817
4.857,-6.599,5.705,24.819
3.851,-6.832,3.447,24.921
3.304,-6.328,3.189,24.922
2.957,-6.725,0.83,24.924
5.56,-9.353,6.019,24.926
4.023,-6.87,4.132,24.949
-0.072,-7.089,0.596,25.012
-0.132,-4.953,-0.249,25.014
-0.383,-5.113,-1.062,25.015
0.089,-6.025,-1.458,25.017
-1.496,-6.358,-2.047,25.019
-3.859,-1.804,-4.939,25.112
-3.533,-4.536,-4.599,25.114
-3.923,-6.985,-3.935,25.115
-4.13,-5.85,-3.845,25.121
-3.587,-1.782,-5.744,25.123
-0.847,2.411,-6.717,25.212
-2.628,1.787,-6.63,25.215
-6.034,-1.936,-10.096,25.225
-6.374,-1.194,-13.458,25.227
-1.797,0.763,-13.832,25.228
-0.453,7.734,-7.851,25.312
0.634,8.87,-9.855,25.313
-0.057,5.713,-14.919,25.315
-0.528,7.162,-16.843,25.33
6.449,8.16,-12.274,25.412
5.04,7.736,-11.47,25.414
5.013,8.585,-11.606,25.415
4.974,9.43,-11.987,25.417
4.674,9.33,-10.787,25.419
4.239,11.851,-4.545,25.512
3.582,11.265,-5.173,25.514
3.398,11.918,-5.908,25.515
3.227,13.061,-5.394,25.521
3.414,12.771,-6.243,25.523
3.051,11.741,-6.796,25.612
2.727,10.561,-5.994,25.614
2.035,9.588,-5.461,25.615
1.818,8.935,-4.627,25.617
1.663,8.431,-3.947,25.619
-0.191,9.162,-2.087,25.712
-0.44,9.032,-1.911,25.714
-1.055,8.749,-1.683,25.715
-1.615,8.717,-1.872,25.725
-2.096,8.681,-2.294,25.727
-1.956,9.098,-0.704,25.812
-1.644,8.922,-0.656,25.817
-1.422,8.711,-0.578,25.818
-1.4,8.8,-0.4,25.82
-1.211,8.716,-0.269,25.822
-0.3,8.5,2.1,25.912
-0.075,8.287,2.219,25.914
0.349,8.774,2.038,25.92
0.679,9.519,2.33,25.942
0.93,10.345,1.992,25.944
2.313,11.031,0.082,26.012
2.982,11.113,-0.131,26.013
3.422,10.842,-0.921,26.015
3.938,10.265,-1.727,26.017
4.916,10.723,-2.606,26.018
4.725,10.859,-5.89,26.112
4.645,11.799,-4.79,26.114
4.192,11.49,-5.795,26.123
5.233,12.133,-6.233,26.125
6.573,11.513,-7.133,26.127
5.535,11.077,-8.113,26.212
5.037,11.783,-4.686,26.213
5.234,13.972,-1.44,26.215
6.401,13.305,-1.973,26.217
5.866,11.728,-5.26,26.218
3.382,9.873,-10.573,26.312
4.445,10.618,-8.318,26.313
4.318,8.927,-8.027,26.315
3.682,7.373,-8.473,26.32
3.936,5.855,-8.455,26.322
-2.642,0.534,-7.851,26.412
-2.436,-1.043,-6.685,26.413
-1.283,-0.832,-5.702,26.415
-0.808,-2.43,-5.255,26.417
-0.738,-3.551,-4.974,26.422
-0.934,-4.58,-3.323,26.512
-0.268,-4.16,-3.345,26.521
-0.344,-4.495,-3.837,26.523
-0.2,-4.5,-4.1,26.533
0.457,-5.149,-3.881,26.535
0.857,-6.27,-3.061,26.612
0.774,-6.422,-3.057,26.613
0.939,-5.417,-3.865,26.615
1.439,-6.617,-4.165,26.617
1.378,-7.635,-4.13,26.618
2.438,-7.434,-4.326,26.707
2.669,-7.028,-4.532,26.709
2.403,-6.769,-4.711,26.711
2.395,-7.184,-4.516,26.712
2.647,-7.742,-4.358,26.723
3.039,-8.61,-2.767,26.814
3.0,-8.4,-3.0,26.815
2.563,-8.016,-3.267,26.817
2.871,-8.218,-3.2,26.913
3.124,-8.806,-2.7,26.915
2.861,-8.59,-2.633,26.93
2.643,-8.361,-2.733,26.932
2.765,-8.841,-2.8,26.935
2.582,-8.971,-2.8,26.937
2.71,-9.227,-2.667,27.016
3.025,-9.131,-2.633,27.02
2.896,-8.949,-2.833,27.031
2.671,-9.018,-2.9,27.033
2.633,-8.733,-3.067,27.035
2.802,-9.125,-2.933,27.036
2.504,-8.793,-4.547,27.111
2.474,-8.421,-4.579,27.112
2.2,-8.4,-4.7,27.114
2.066,-8.359,-4.721,27.116
2.193,-8.638,-4.642,27.193
2.326,-8.679,-4.621,27.195
2.415,-8.824,-4.516,27.196
2.074,-8.121,-4.779,27.198
2.282,-8.606,-4.674,27.201
2.504,-8.793,-4.547,27.293
2.378,-8.514,-4.626,27.295
2.104,-8.493,-4.747,27.298
2.104,-8.493,-4.747,27.3
