gyro_time_list,gyro_x_list,gyro_y_list,gyro_z_list
0.0,-0.1,0.1,0.0
0.001,-0.2,0.2,-0.0
0.003,0.8,0.2,-0.3
0.005,-0.3,0.2,-0.2
0.13,-0.3,0.5,0.1
0.131,-0.3,0.4,0.1
0.133,-0.1,0.2,-0.2
0.138,0.3,0.3,0.0
0.139,0.1,0.2,0.0
0.234,-0.1,0.2,0.1
0.235,-0.1,0.2,0.1
0.237,-0.0,0.1,0.1
0.238,0.0,0.1,0.2
0.24,0.1,0.1,0.2
0.242,-0.0,0.1,0.2
0.243,-0.1,0.1,0.2
0.341,-0.2,0.1,0.1
0.355,-0.1,0.1,0.1
0.357,-0.2,0.1,0.1
0.371,-0.2,0.1,0.1
0.372,-0.3,0.1,0.2
0.429,-0.6,0.1,0.3
0.431,-1.0,0.1,0.5
0.434,-1.7,0.0,0.7
0.436,-2.4,-0.0,1.0
0.5,-3.1,-0.1,1.5
0.507,-3.9,-0.2,2.0
0.508,-4.8,-0.3,2.4
0.51,-5.7,-0.4,2.8
0.512,-6.2,-0.6,3.1
0.597,-6.4,-0.7,3.3
0.604,-6.6,-0.7,3.6
0.606,-7.2,-0.5,3.9
0.607,-7.9,-0.3,3.9
0.716,-7.6,0.1,4.0
0.718,-6.4,0.6,4.5
0.719,-5.2,0.8,4.8
0.721,-4.1,0.6,5.0
0.734,-2.7,0.6,5.5
0.826,-2.2,0.7,5.6
0.828,-2.4,0.7,5.7
0.833,-2.7,0.7,5.8
0.835,-2.7,0.5,5.9
0.837,-2.6,0.4,5.9
0.91,-1.8,0.1,5.9
0.912,0.0,-0.1,5.8
0.914,1.9,-0.2,5.7
0.915,3.1,-0.3,5.4
0.918,3.6,-0.2,5.0
0.92,3.4,0.1,4.4
0.999,2.4,0.2,3.8
1.001,0.9,0.2,3.0
1.003,-0.6,0.1,2.1
1.004,-1.7,-0.1,1.3
1.123,-2.4,-0.2,0.7
1.126,-2.9,-0.3,0.1
1.128,-3.0,-0.3,-0.4
1.145,-2.7,-0.3,-0.8
1.146,-2.2,-0.2,-1.1
1.2,-1.5,-0.1,-1.2
1.202,-0.9,-0.1,-1.4
1.204,-0.5,-0.1,-1.5
1.205,-0.4,-0.1,-1.6
1.207,-0.5,-0.2,-1.7
1.306,-0.6,-0.2,-1.6
1.309,-0.7,-0.2,-1.6
1.31,-0.9,-0.3,-1.5
1.312,-1.2,-0.2,-1.3
1.317,-1.3,-0.1,-1.1
1.434,-1.3,-0.1,-0.9
1.436,-1.3,0.0,-0.7
1.438,-1.3,0.1,-0.3
1.44,-1.0,0.2,-0.0
1.442,-0.6,0.3,0.3
1.537,-0.5,0.4,0.5
1.539,-0.5,0.4,0.7
1.552,-0.7,0.5,0.8
1.555,-0.5,0.6,1.1
1.556,-0.4,0.7,1.2
1.558,-0.5,0.8,1.2
1.636,-0.5,0.8,1.3
1.638,-0.5,0.8,1.4
1.64,-0.2,0.7,1.5
1.642,0.3,0.7,1.4
1.644,0.8,0.6,1.3
1.719,1.5,0.7,1.1
1.721,2.1,0.7,0.8
1.722,2.4,0.6,0.5
1.724,2.6,0.6,0.2
1.725,2.8,0.5,0.0
1.826,2.6,0.4,-0.1
1.827,2.4,0.3,-0.2
1.829,2.2,0.2,-0.3
1.936,2.1,0.0,-0.3
1.938,1.9,-0.1,-0.3
1.947,1.8,-0.3,-0.4
1.949,1.5,-0.5,-0.6
1.951,1.2,-0.7,-0.8
1.963,1.1,-0.9,-1.2
2.026,1.0,-1.0,-1.4
2.031,1.1,-1.1,-1.8
2.037,1.2,-1.1,-2.0
2.039,1.3,-1.2,-2.0
2.041,1.0,-1.3,-1.8
2.043,0.6,-1.4,-1.8
2.124,0.4,-1.5,-1.7
2.126,0.2,-1.5,-1.6
2.127,0.0,-1.4,-1.6
2.129,-0.1,-1.4,-1.7
2.233,-0.2,-1.3,-1.7
2.239,-0.2,-1.2,-1.7
2.241,-0.3,-1.1,-1.7
2.243,-0.3,-0.9,-1.6
2.244,-0.2,-0.8,-1.6
2.331,-0.3,-0.6,-1.5
2.333,-0.2,-0.5,-1.3
2.335,-0.1,-0.3,-1.1
2.337,-0.1,-0.1,-0.8
2.338,-0.1,0.2,-0.6
2.428,-0.0,0.4,-0.3
2.43,0.1,0.6,-0.0
2.432,0.4,0.9,0.3
2.433,0.8,1.1,0.6
2.435,1.0,1.3,0.9
2.525,0.9,1.5,1.1
2.526,0.6,1.7,1.4
2.532,0.2,1.8,1.7
2.534,-0.1,1.9,2.1
2.536,-0.2,1.9,2.3
2.636,-0.2,1.9,2.5
2.638,-0.2,1.8,2.6
2.647,-0.1,1.6,2.6
2.649,0.0,1.5,2.5
2.66,0.2,1.4,2.3
2.742,0.3,1.2,2.0
2.744,0.2,1.1,1.7
2.745,-0.1,0.9,1.5
2.747,-0.5,0.7,1.3
2.755,-0.8,0.4,1.1
2.827,-1.4,0.2,1.0
2.828,-2.1,-0.0,0.8
2.83,-2.6,-0.1,0.7
2.832,-2.6,-0.2,0.6
2.833,-2.5,-0.3,0.4
2.934,-2.4,-0.4,0.2
2.936,-2.1,-0.4,0.0
2.938,-1.6,-0.4,-0.2
2.939,-1.0,-0.3,-0.4
2.941,-0.5,-0.3,-0.6
3.038,-0.0,-0.3,-0.8
3.04,0.2,-0.3,-0.9
3.042,0.3,-0.3,-1.0
3.053,0.2,-0.3,-0.9
3.055,0.0,-0.3,-0.8
3.128,-0.2,-0.2,-0.7
3.129,-0.3,-0.2,-0.7
3.131,-0.5,-0.1,-0.6
3.134,-0.6,0.1,-0.6
3.139,-0.9,0.1,-0.6
3.224,-1.0,0.2,-0.5
3.226,-0.9,0.2,-0.5
3.228,-0.3,0.1,-0.7
3.229,0.7,0.1,-1.0
3.231,1.4,0.1,-1.4
3.329,1.6,0.1,-1.8
3.331,1.9,0.1,-2.1
3.332,1.9,0.0,-2.3
3.334,1.9,-0.1,-2.4
3.34,1.6,-0.3,-2.4
3.444,1.4,-0.4,-2.3
3.446,1.4,-0.5,-2.2
3.457,1.4,-0.5,-2.1
3.458,1.3,-0.5,-2.1
3.46,1.3,-0.5,-2.0
3.528,1.2,-0.6,-2.0
3.529,1.2,-0.6,-2.0
3.533,1.1,-0.6,-2.0
3.534,1.0,-0.5,-1.9
3.536,0.9,-0.5,-1.9
3.636,0.9,-0.4,-1.7
3.638,0.8,-0.3,-1.5
3.639,0.6,-0.2,-1.2
3.641,0.4,-0.1,-0.8
3.642,0.2,0.0,-0.4
3.73,-0.1,0.2,-0.1
3.736,-0.2,0.4,0.2
3.738,-0.3,0.7,0.4
3.741,-0.2,0.9,0.6
3.837,0.1,1.1,1.0
3.839,0.2,1.4,1.4
3.852,0.0,1.6,1.8
3.854,-0.1,1.7,2.2
3.855,0.2,1.8,2.6
3.931,0.7,1.9,2.9
3.932,0.9,1.8,3.0
3.934,1.0,1.7,3.0
3.936,1.1,1.6,3.0
3.937,1.1,1.6,2.9
4.031,0.8,1.5,2.7
4.032,0.4,1.4,2.5
4.034,0.1,1.3,2.4
4.036,-0.1,1.1,2.2
4.037,-0.3,0.9,2.0
4.139,-0.6,0.7,1.9
4.142,-0.7,0.5,1.7
4.144,-0.8,0.4,1.5
4.146,-0.8,0.2,1.2
4.148,-0.7,0.1,0.9
4.224,-0.7,0.0,0.7
4.236,-0.6,-0.1,0.4
4.238,-0.5,-0.2,0.1
4.239,-0.5,-0.3,-0.2
4.25,-0.3,-0.3,-0.5
4.331,-0.1,-0.3,-0.7
4.333,0.1,-0.3,-0.9
4.334,0.1,-0.4,-1.0
4.336,0.1,-0.4,-1.0
4.341,-0.1,-0.4,-1.2
4.429,-0.4,-0.5,-1.3
4.432,-0.6,-0.5,-1.6
4.434,-0.6,-0.5,-1.8
4.435,-0.6,-0.4,-2.0
4.437,-0.6,-0.4,-2.1
4.537,-0.7,-0.4,-2.2
4.539,-0.5,-0.3,-2.1
4.541,-0.1,-0.3,-1.9
4.544,2.1,-0.2,-2.2
4.552,3.4,0.1,-0.7
4.624,1.7,-0.2,-1.2
4.626,0.4,-0.1,-1.3
4.636,0.1,0.0,-1.1
4.639,0.7,0.5,-0.9
4.641,0.3,0.2,-0.9
4.728,0.6,0.2,-1.2
4.73,1.4,0.2,-0.8
4.733,2.3,0.6,-1.3
4.736,2.5,0.5,-1.2
4.738,2.5,0.6,-1.2
4.826,2.3,0.6,-1.3
4.832,1.9,0.6,-1.4
4.833,1.5,0.5,-1.4
4.836,1.0,0.5,-1.4
4.837,0.7,0.4,-1.3
4.936,0.8,0.3,-1.3
4.945,1.3,0.3,-1.2
4.947,1.9,0.2,-1.1
4.948,2.3,0.2,-0.9
4.959,2.5,0.1,-0.8
5.001,2.4,0.0,-0.6
5.004,2.1,-0.0,-0.5
5.006,1.6,-0.0,-0.4
5.008,0.9,-0.0,-0.3
5.014,0.4,0.0,-0.3
5.126,0.1,0.2,-0.2
5.128,-0.1,0.4,-0.1
5.129,-0.1,0.6,0.1
5.227,0.1,0.9,0.3
5.229,0.5,1.0,0.5
5.23,1.1,1.2,0.7
5.232,1.5,1.4,0.9
5.233,1.6,1.4,0.9
5.235,1.7,1.5,0.9
5.34,2.2,1.5,0.9
5.342,2.2,1.5,0.8
5.345,1.6,1.3,0.5
5.347,0.8,1.1,0.3
5.358,0.3,0.9,0.2
5.367,0.3,0.9,0.1
5.426,0.4,0.8,0.1
5.431,0.2,0.7,0.2
5.433,-0.1,0.5,0.4
5.434,-0.4,0.4,0.5
5.531,-0.6,0.4,0.7
5.533,-0.7,0.3,0.7
5.534,-0.4,0.2,0.6
5.536,-0.4,0.1,0.5
5.542,-0.4,0.0,0.4
5.629,-0.3,-0.0,0.3
5.634,-0.3,-0.1,0.2
5.636,-0.3,-0.2,0.1
5.638,-0.2,-0.2,-0.1
5.639,-0.2,-0.2,-0.2
5.743,-0.2,-0.2,-0.3
5.744,-0.1,-0.3,-0.3
5.746,-0.2,-0.3,-0.3
5.757,-0.4,-0.3,-0.1
5.758,-0.6,-0.3,-0.1
5.825,-0.5,-0.2,-0.0
5.826,-0.3,-0.2,-0.1
5.828,-0.1,-0.0,-0.1
5.829,-0.1,0.1,-0.1
5.836,-0.1,0.2,-0.1
5.924,-0.3,0.3,-0.2
5.926,-0.5,0.2,-0.4
5.927,-0.1,0.1,-0.6
5.929,0.5,-0.0,-1.0
5.93,0.9,-0.2,-1.4
6.029,1.2,-0.3,-1.8
6.03,1.5,-0.3,-2.2
6.032,1.1,-0.4,-2.2
6.033,0.8,-0.4,-2.4
6.035,0.5,-0.4,-2.4
6.137,0.4,-0.4,-2.5
6.139,0.4,-0.4,-2.6
6.15,0.5,-0.3,-2.6
6.152,0.6,-0.3,-2.6
6.153,0.8,-0.3,-2.6
6.228,1.0,-0.2,-2.6
6.23,1.2,-0.2,-2.5
6.231,1.2,-0.2,-2.4
6.233,1.1,-0.2,-2.3
6.235,0.9,-0.2,-2.0
6.332,0.8,-0.1,-1.8
6.334,0.7,0.0,-1.4
6.336,0.7,0.2,-1.1
6.337,0.6,0.3,-0.7
6.339,0.4,0.3,-0.3
6.428,0.2,0.4,0.1
6.43,0.2,0.5,0.4
6.431,0.1,0.6,0.6
6.433,0.0,0.7,0.8
6.438,-0.3,0.8,1.0
6.545,-0.5,0.9,1.3
6.558,-0.8,1.0,1.8
6.56,-1.0,1.0,2.4
6.562,-0.9,1.1,2.9
6.571,-0.7,1.0,3.3
6.627,-0.2,1.0,3.4
6.629,0.4,0.9,3.3
6.634,0.8,0.9,3.1
6.636,0.8,0.9,2.9
6.637,0.5,0.8,2.7
6.724,0.1,0.8,2.6
6.725,-0.4,0.7,2.4
6.727,-0.9,0.6,2.2
6.733,-1.3,0.4,2.1
6.735,-1.5,0.3,2.0
6.841,-1.7,0.1,1.8
6.843,-1.9,-0.0,1.5
6.845,-2.1,-0.2,1.3
6.847,-2.2,-0.2,1.1
6.85,-2.3,-0.3,0.9
6.928,-2.5,-0.4,0.6
6.93,-2.5,-0.4,0.4
6.931,-2.3,-0.4,0.3
6.933,-2.0,-0.4,0.1
6.934,-1.6,-0.3,0.0
7.023,-1.1,-0.2,-0.1
7.025,-0.8,-0.1,-0.2
7.026,-0.5,-0.1,-0.3
7.028,-0.2,0.1,-0.4
7.128,-0.1,0.2,-0.5
7.13,-0.3,0.3,-0.5
7.131,-0.3,0.4,-0.5
7.133,-0.4,0.5,-0.5
7.135,-0.3,0.5,-0.4
7.242,0.1,0.4,-0.4
7.243,0.4,0.3,-0.4
7.246,0.8,0.2,-0.5
7.249,1.2,0.1,-0.6
7.252,1.6,0.1,-0.8
7.324,1.7,-0.0,-1.0
7.325,1.6,-0.1,-1.3
7.327,1.4,-0.1,-1.6
7.331,1.2,-0.2,-1.9
7.333,1.1,-0.2,-2.3
7.424,1.1,-0.2,-2.5
7.425,1.1,-0.3,-2.7
7.427,1.2,-0.3,-2.9
7.429,1.3,-0.3,-2.9
7.435,1.3,-0.3,-2.9
7.525,1.2,-0.3,-2.8
7.527,1.1,-0.3,-2.7
7.528,0.9,-0.3,-2.5
7.53,0.8,-0.3,-2.3
7.532,0.7,-0.2,-2.1
7.646,0.7,-0.1,-1.8
7.648,0.7,0.1,-1.6
7.649,0.7,0.2,-1.3
7.651,0.6,0.3,-1.0
7.675,0.6,0.5,-0.7
7.727,0.5,0.6,-0.4
7.729,0.5,0.8,-0.1
7.73,0.7,1.0,0.1
7.735,0.8,1.2,0.3
7.737,0.9,1.3,0.5
7.823,1.0,1.6,0.9
7.826,1.1,1.7,1.3
7.832,0.9,1.9,1.9
7.833,0.6,2.0,2.4
7.835,0.6,2.0,2.7
7.925,1.0,2.0,2.9
7.926,1.7,2.0,2.8
7.928,2.5,2.0,2.6
7.93,3.0,1.9,2.3
7.931,3.0,1.8,2.1
8.062,2.6,1.6,1.8
8.064,2.1,1.4,1.7
8.065,1.5,1.1,1.5
8.08,0.8,0.9,1.3
8.082,0.2,0.6,1.0
8.155,-0.1,0.4,0.8
8.163,-0.3,0.3,0.6
8.164,-0.4,0.1,0.5
8.166,-0.2,0.0,0.4
8.167,0.2,-0.0,0.2
8.169,0.6,-0.2,0.1
8.223,0.9,-0.3,-0.0
8.225,1.0,-0.4,-0.1
8.227,1.0,-0.5,-0.2
8.228,1.0,-0.6,-0.3
8.323,1.0,-0.6,-0.4
8.325,0.9,-0.7,-0.5
8.327,0.7,-0.8,-0.5
8.332,0.6,-0.9,-0.6
8.334,0.4,-0.9,-0.6
8.432,0.4,-0.9,-0.7
8.441,0.2,-0.9,-0.8
8.451,0.1,-0.9,-1.0
8.452,0.2,-0.9,-1.2
8.454,0.3,-0.7,-1.3
8.524,0.3,-0.6,-1.3
8.525,0.3,-0.4,-1.2
8.53,0.5,-0.2,-1.1
8.532,0.4,-0.1,-0.8
8.533,-0.1,-0.1,-0.7
8.627,0.0,-0.2,-0.6
8.629,0.7,-0.2,-0.9
8.634,1.4,-0.2,-1.3
8.636,2.1,-0.2,-1.8
8.728,2.5,-0.3,-2.2
8.73,2.5,-0.4,-2.5
8.732,2.0,-0.5,-2.7
8.734,1.4,-0.5,-2.8
8.735,0.7,-0.6,-2.9
8.84,0.5,-0.5,-2.9
8.845,0.3,-0.5,-3.0
8.855,0.2,-0.4,-3.0
8.856,0.4,-0.2,-2.9
8.858,0.8,-0.2,-2.8
8.927,1.1,-0.1,-2.7
8.929,1.1,-0.1,-2.4
8.931,1.1,-0.0,-2.2
8.932,1.1,0.1,-1.9
8.937,1.1,0.1,-1.6
9.023,1.1,0.2,-1.4
9.025,1.1,0.3,-1.1
9.027,1.0,0.4,-0.9
9.028,1.0,0.5,-0.7
9.03,0.9,0.6,-0.5
9.135,1.0,0.8,-0.3
9.136,0.8,0.9,-0.1
9.138,0.6,1.1,0.2
9.145,0.4,1.3,0.6
9.147,0.2,1.6,1.1
9.223,0.1,1.8,1.5
9.239,0.2,1.8,1.9
9.24,0.3,1.7,2.1
9.242,0.5,1.5,2.3
9.243,0.9,1.5,2.4
9.325,0.9,1.5,2.4
9.326,0.5,1.4,2.5
9.328,-0.2,1.3,2.6
9.33,-0.9,1.2,2.8
9.333,-1.6,1.1,2.8
9.427,-2.1,0.9,2.8
9.428,-2.6,0.7,2.8
9.43,-2.9,0.5,2.7
9.432,-2.9,0.4,2.5
9.433,-2.8,0.3,2.3
9.532,-2.6,0.2,2.0
9.541,-2.4,0.1,1.8
9.542,-2.1,0.0,1.5
9.544,-1.8,-0.0,1.3
9.546,-1.4,-0.0,1.0
9.623,-1.0,0.0,0.8
9.628,-0.8,0.0,0.6
9.63,-0.6,0.1,0.4
9.636,-0.4,0.1,0.2
9.637,-0.3,0.2,0.1
9.728,-0.3,0.2,-0.0
9.73,-0.2,0.3,-0.2
9.732,-0.2,0.5,-0.3
9.733,-0.1,0.6,-0.4
9.735,0.1,0.8,-0.4
9.827,0.6,0.8,-0.5
9.829,1.2,0.7,-0.5
9.831,1.9,0.4,-0.5
9.832,2.3,0.1,-0.7
9.834,2.4,-0.2,-0.9
9.94,2.3,-0.5,-1.1
9.941,2.0,-0.7,-1.3
9.943,1.4,-0.9,-1.7
9.95,0.7,-1.1,-2.0
9.965,0.1,-1.2,-2.3
10.027,-0.4,-1.3,-2.7
10.028,-0.6,-1.3,-3.0
10.03,-0.7,-1.3,-3.3
10.031,-0.5,-1.2,-3.5
10.033,-0.2,-1.1,-3.7
10.127,0.1,-1.0,-3.7
10.128,0.5,-0.9,-3.7
10.13,0.7,-0.9,-3.6
10.138,0.8,-0.8,-3.4
10.14,0.7,-0.8,-3.1
10.223,0.6,-0.7,-2.8
10.225,0.4,-0.6,-2.5
10.226,0.4,-0.5,-2.2
10.228,0.3,-0.3,-1.9
10.229,0.3,-0.2,-1.5
10.337,0.3,-0.0,-1.1
10.339,0.2,0.2,-0.6
10.34,0.1,0.4,-0.1
10.35,-0.0,0.6,0.5
10.423,-0.2,0.9,1.1
10.424,-0.4,1.1,1.7
10.43,-0.5,1.3,2.3
10.431,-0.5,1.4,2.8
10.433,-0.1,1.5,3.2
10.525,0.4,1.6,3.4
10.526,1.2,1.6,3.4
10.528,2.1,1.7,3.4
10.534,2.7,1.7,3.3
10.536,2.8,1.8,3.2
10.624,2.4,1.8,3.0
10.625,1.5,1.7,2.8
10.635,0.6,1.5,2.5
10.636,-0.2,1.3,2.1
10.639,-0.8,1.0,1.7
10.733,-1.2,0.8,1.3
10.742,-1.6,0.6,1.0
10.744,-1.8,0.4,0.7
10.754,-1.7,0.2,0.5
10.755,-1.5,0.1,0.3
10.823,-1.2,-0.0,0.1
10.824,-1.1,-0.1,-0.0
10.829,-1.0,-0.2,-0.1
10.831,-0.8,-0.3,-0.2
10.833,-0.6,-0.3,-0.3
10.929,-0.6,-0.4,-0.3
10.93,-0.5,-0.4,-0.4
10.932,-0.2,-0.4,-0.5
10.933,-0.1,-0.4,-0.5
10.935,0.0,-0.4,-0.7
11.028,0.2,-0.4,-0.8
11.03,0.4,-0.4,-0.9
11.031,0.7,-0.4,-1.1
11.033,0.8,-0.4,-1.3
11.034,0.8,-0.4,-1.4
11.129,0.6,-0.3,-1.5
11.133,0.5,-0.2,-1.6
11.143,0.4,-0.1,-1.4
11.154,0.2,0.1,-1.2
11.156,-0.1,0.4,-0.9
11.226,-0.2,0.6,-0.4
11.228,0.4,0.9,-0.0
11.233,1.2,1.0,0.3
11.234,2.0,1.0,0.4
11.236,2.8,0.9,0.4
11.323,3.3,0.8,0.3
11.325,3.7,0.7,0.1
11.327,4.3,0.6,-0.0
11.329,4.8,0.5,-0.2
11.334,5.0,0.2,-0.3
11.423,4.8,-0.0,-0.4
11.429,4.2,-0.3,-0.4
11.432,3.3,-0.5,-0.5
11.434,2.5,-0.7,-0.6
11.436,2.0,-0.8,-0.6
11.54,1.4,-0.9,-0.7
11.551,0.9,-1.0,-0.7
11.553,0.4,-1.0,-0.8
11.555,0.0,-1.0,-0.9
11.558,-0.3,-1.0,-1.0
11.625,-0.4,-0.8,-1.1
11.626,-0.3,-0.6,-1.3
11.638,0.0,-0.4,-1.5
11.64,0.4,-0.3,-1.6
11.641,0.8,-0.2,-1.7
11.723,1.2,-0.0,-1.7
11.724,1.7,0.1,-1.7
11.726,2.2,0.2,-1.7
11.729,2.4,0.3,-1.7
11.731,2.6,0.3,-1.6
11.833,2.6,0.4,-1.6
11.835,2.4,0.5,-1.7
11.837,2.2,0.6,-1.7
11.838,2.0,0.8,-1.8
11.84,1.9,0.9,-1.8
11.93,1.9,1.0,-1.8
11.933,2.0,1.0,-1.8
11.934,2.2,1.0,-1.8
11.936,2.3,1.0,-1.9
11.938,2.5,1.0,-2.1
12.034,2.5,1.0,-2.3
12.035,2.4,1.0,-2.4
12.037,2.2,1.0,-2.5
12.042,1.9,1.1,-2.4
12.128,1.6,1.2,-2.2
12.13,1.3,1.3,-2.0
12.131,1.2,1.4,-1.8
12.133,1.1,1.5,-1.7
12.135,1.3,1.7,-1.6
12.237,1.6,1.8,-1.6
12.238,2.0,2.0,-1.6
12.24,2.3,2.1,-1.5
12.242,2.8,2.2,-1.6
12.248,3.8,2.1,-1.6
12.328,6.1,2.2,-1.8
12.33,6.6,2.2,-2.2
12.331,5.9,1.3,-1.6
12.333,3.5,0.6,-0.8
12.334,1.8,0.5,-0.4
12.422,1.6,0.6,-0.3
12.427,1.5,0.5,-0.2
12.429,1.2,0.3,-0.1
12.431,1.2,0.2,-0.2
12.432,0.9,0.1,-0.0
12.522,0.4,-0.0,0.1
12.524,0.0,-0.1,0.1
12.525,-0.3,-0.1,0.1
12.527,-0.6,-0.2,0.0
12.532,-0.8,-0.1,0.0
12.649,-0.9,-0.1,0.0
12.651,-0.9,-0.1,0.1
12.652,-0.8,0.0,0.1
12.654,-0.6,0.1,0.2
12.663,-0.3,0.2,0.2
12.726,-0.1,0.2,0.3
12.727,0.1,0.3,0.4
12.731,0.1,0.3,0.4
12.732,0.0,0.3,0.5
12.734,0.0,0.4,0.5
12.82,-0.0,0.4,0.6
12.821,-0.1,0.5,0.7
12.823,-0.1,0.6,0.8
12.824,-0.1,0.6,0.9
12.826,-0.1,0.6,1.0
12.922,-0.0,0.6,1.1
12.924,0.1,0.6,1.1
12.925,0.2,0.6,1.0
12.933,0.3,0.5,1.0
12.935,0.3,0.5,0.9
13.04,0.2,0.4,0.8
13.042,0.1,0.3,0.7
13.044,0.0,0.2,0.7
13.055,-0.1,0.1,0.5
13.057,-0.3,-0.0,0.4
13.126,-0.6,-0.2,0.2
13.133,-0.9,-0.3,-0.1
13.135,-1.0,-0.3,-0.4
13.136,-0.8,-0.3,-0.7
13.138,-0.7,-0.3,-1.0
13.229,-0.4,-0.4,-1.3
13.231,-0.2,-0.4,-1.4
13.232,-0.0,-0.4,-1.5
13.234,0.0,-0.4,-1.5
13.236,0.1,-0.3,-1.4
13.325,0.1,-0.3,-1.4
13.327,0.1,-0.3,-1.3
13.328,0.0,-0.3,-1.2
13.33,0.1,-0.3,-1.1
13.332,0.1,-0.2,-1.0
13.43,0.2,-0.2,-0.9
13.432,0.2,-0.2,-0.8
13.442,0.1,-0.2,-0.7
13.452,-0.0,-0.3,-0.7
13.453,0.1,-0.5,-0.6
13.525,0.5,-0.6,-0.5
13.527,0.5,-0.8,-0.5
13.528,0.2,-1.0,-0.4
13.53,-0.2,-1.1,-0.2
13.531,-0.5,-1.3,-0.1
13.621,-0.4,-1.4,0.1
13.628,0.2,-1.5,0.3
13.63,0.7,-1.4,0.6
13.635,0.7,-1.5,0.8
13.74,0.9,-1.4,1.0
13.742,1.2,-1.3,1.3
13.743,1.1,-1.3,1.5
13.745,1.5,-1.1,1.9
13.747,1.6,-0.9,2.1
13.84,1.3,-0.6,2.2
13.842,1.2,-0.4,2.3
13.852,1.5,-0.1,2.5
13.853,1.6,0.2,2.6
13.855,1.6,0.4,2.6
13.922,1.3,0.5,2.4
13.923,0.9,0.7,2.1
13.929,0.6,0.8,1.8
13.931,0.7,0.9,1.5
13.933,0.5,0.8,0.8
14.022,0.3,0.7,0.8
14.032,-0.2,0.4,0.4
14.034,-0.3,0.1,0.1
14.036,0.3,0.2,-0.0
14.039,0.0,0.1,-0.3
14.134,0.2,0.2,-0.2
14.142,-0.0,0.2,-0.3
14.143,0.0,0.3,-0.3
14.145,0.2,0.2,-0.3
14.147,0.3,0.2,-0.4
14.221,0.0,-0.0,-0.4
14.231,0.1,-0.1,-0.4
14.233,0.2,-0.2,-0.5
14.24,0.2,-0.2,-0.6
14.241,0.4,-0.2,-0.6
14.322,0.5,-0.3,-0.7
14.323,1.0,-0.3,-0.7
14.325,1.0,-0.5,-0.7
14.33,0.9,-0.8,-0.9
14.332,1.3,-0.8,-0.9
14.424,1.0,-0.9,-1.1
14.426,0.8,-0.7,-1.1
14.428,0.9,-0.6,-1.0
14.431,0.9,-0.6,-1.0
14.433,0.4,-0.8,-0.9
14.533,0.3,-0.9,-0.8
14.535,0.7,-0.6,-0.8
14.541,1.2,-0.3,-0.5
14.543,1.5,0.2,-0.2
14.545,0.1,0.2,0.0
14.622,-0.9,0.0,0.3
14.624,-1.0,0.3,0.4
14.625,-1.1,0.7,0.6
14.636,-0.6,1.1,0.6
14.638,-0.5,1.3,0.6
14.739,-0.4,1.3,0.4
14.74,-0.3,1.0,0.1
14.745,0.1,0.7,-0.3
14.747,-0.2,0.3,-0.5
14.75,-0.5,0.2,-0.4
14.822,-0.1,0.1,-0.5
14.824,0.7,-0.0,-0.7
14.825,0.7,-0.2,-0.6
14.827,0.1,-0.6,-0.6
14.832,-0.3,-0.8,-0.5
14.934,0.0,-0.9,-0.5
14.935,-0.1,-1.2,-0.4
14.937,-0.9,-1.4,-0.2
14.938,-0.8,-1.5,-0.1
14.962,-0.1,-1.4,-0.0
15.022,-0.1,-1.5,0.0
15.024,-0.8,-1.8,0.2
15.026,-0.3,-1.6,0.3
15.031,0.7,-1.3,0.3
15.032,0.5,-1.2,0.4
15.121,0.4,-1.1,0.6
15.123,0.8,-0.5,0.7
15.129,0.8,0.1,1.0
15.131,0.1,0.5,1.2
15.132,-0.3,0.9,0.9
15.226,-0.2,1.1,0.5
15.228,0.0,1.2,0.4
15.229,0.0,1.3,0.4
15.231,-0.0,1.4,0.5
15.331,-0.1,1.5,0.4
15.333,-0.3,1.4,0.6
15.334,-0.1,1.2,0.5
15.342,0.2,1.1,0.6
15.354,0.3,0.9,0.6
15.422,0.4,0.6,0.6
15.424,0.4,0.5,0.4
15.429,-0.0,0.4,0.2
15.43,0.0,0.2,0.1
15.432,-0.2,0.0,0.0
15.526,-0.2,-0.1,0.0
15.528,-0.3,-0.3,-0.1
15.53,-0.5,-0.5,-0.2
15.531,-0.7,-0.6,-0.4
15.534,-0.9,-0.6,-0.8
15.625,-0.3,-0.5,-0.7
15.634,0.1,-0.5,-0.9
15.636,0.3,-0.6,-0.8
15.638,-0.2,-0.7,-0.9
15.639,-0.3,-0.8,-0.7
15.745,-0.3,-0.8,-0.5
15.747,-0.5,-0.9,-0.4
15.749,-1.0,-1.0,-0.4
15.76,-1.2,-1.1,-0.5
15.761,-1.2,-1.1,-0.5
15.825,-0.6,-1.1,-0.7
15.827,-0.2,-1.0,-0.8
15.83,-0.5,-0.6,-0.6
15.832,-0.3,0.2,-0.2
15.836,-0.2,0.8,0.3
15.93,-0.1,1.2,0.6
15.931,0.3,1.5,0.8
15.933,-0.2,1.5,0.8
15.938,-1.3,1.4,0.6
15.94,-0.2,1.6,0.5
16.021,0.0,1.5,0.0
16.023,0.3,1.3,-0.2
16.025,0.6,1.1,-0.4
16.026,0.7,1.0,-0.4
16.028,-0.1,0.5,-0.1
16.132,-0.7,-0.0,0.0
16.135,-0.7,-0.4,0.2
16.147,-0.5,-0.6,0.2
16.149,-0.5,-0.9,0.2
16.15,-0.5,-1.2,0.2
16.23,-1.0,-1.6,0.2
16.232,-0.1,-1.7,-0.0
16.234,-0.1,-1.9,-0.2
16.235,-0.3,-2.2,-0.0
16.237,-0.4,-2.4,-0.2
16.321,0.2,-2.4,-0.3
16.323,0.2,-2.3,-0.2
16.325,0.3,-2.0,0.0
16.326,0.7,-1.8,-0.1
16.328,1.9,-1.3,0.2
16.422,1.3,-0.8,0.1
16.423,1.2,-0.4,-0.2
16.425,0.3,-0.1,0.2
16.426,-0.9,0.3,0.3
16.428,-1.3,0.7,0.2
16.532,0.6,1.1,0.4
16.543,-0.1,1.1,0.2
16.545,-0.2,1.1,0.4
16.557,0.0,1.2,0.5
16.558,-0.4,1.1,0.6
16.625,-0.4,0.9,0.6
16.626,-0.2,0.7,0.8
16.628,-0.3,0.5,0.8
16.63,-0.3,0.3,0.7
16.635,-0.3,0.0,0.6
16.726,-0.2,-0.2,0.5
16.728,-0.0,-0.3,0.4
16.729,-0.1,-0.4,0.3
16.731,-0.1,-0.5,-0.1
16.733,0.3,-0.5,-0.5
16.839,0.4,-0.5,-0.6
16.84,0.2,-0.6,-0.6
16.842,0.2,-0.7,-0.4
16.843,0.2,-0.9,-0.1
16.845,0.2,-1.0,-0.0
16.927,0.4,-1.2,0.2
16.928,0.3,-1.4,0.4
16.93,0.5,-1.6,0.6
16.932,0.9,-1.8,0.8
17.021,1.1,-2.0,1.1
17.023,0.5,-2.0,1.3
17.024,1.4,-2.1,1.5
17.026,1.6,-2.0,1.8
17.028,0.2,-1.8,1.9
17.129,-0.6,-1.5,1.7
17.131,-1.2,-1.2,1.5
17.133,-0.7,-0.9,1.3
17.135,-0.2,-0.7,1.5
17.136,-0.8,-0.7,1.8
17.235,-0.9,-0.6,2.0
17.237,-1.3,-0.3,2.3
17.245,-1.4,0.0,2.1
17.246,-1.0,0.1,2.0
17.248,-0.2,-0.1,2.0
17.325,-0.3,-0.5,2.2
17.327,-0.4,-0.4,2.3
17.328,-0.5,-0.1,1.9
17.33,-0.3,0.2,1.6
17.331,0.3,0.3,1.6
17.429,0.5,-0.2,1.9
17.43,-1.0,-0.6,2.0
17.432,-1.8,-0.6,1.9
17.433,-2.0,-0.3,1.5
17.435,-2.0,0.0,1.2
17.528,-1.4,0.5,1.2
17.529,-0.8,0.6,1.0
17.531,0.7,0.7,1.4
17.533,-0.0,0.8,1.7
17.535,-0.2,1.0,2.2
17.643,0.5,1.0,2.2
17.644,0.6,1.2,2.5
17.646,-0.6,1.4,2.7
17.651,-0.6,1.9,2.7
17.662,-1.4,2.2,2.2
17.719,-0.5,2.6,2.2
17.724,-0.9,2.6,1.7
17.726,-0.8,2.3,1.5
17.727,0.2,2.1,1.4
17.73,1.0,2.1,1.3
17.829,0.5,2.2,1.0
17.83,0.1,2.0,0.8
17.832,1.7,2.2,0.7
17.834,4.2,1.6,0.2
17.835,4.4,1.6,0.1
17.926,1.3,0.9,0.2
17.928,0.6,1.1,0.0
17.929,1.6,1.2,0.1
17.931,2.5,1.1,-0.0
17.932,2.0,0.9,-0.2
18.034,0.7,0.5,-0.2
18.043,0.5,0.3,-0.4
18.045,1.4,0.4,-0.7
18.057,0.7,0.5,-0.9
18.058,-0.3,0.4,-1.1
18.126,-0.2,0.4,-0.8
18.131,-0.8,0.2,-0.4
18.132,-1.0,0.2,-0.2
18.134,-0.8,0.4,-0.2
18.135,-0.5,0.5,-0.1
18.221,-0.9,0.3,-0.0
18.231,-1.5,0.2,0.2
18.233,-1.3,0.2,0.2
18.235,-0.8,0.2,-0.0
18.236,-0.6,0.2,-0.2
18.321,-0.4,0.3,-0.5
18.323,-0.7,-0.0,-0.6
18.324,-0.5,-0.1,-0.6
18.33,-0.5,-0.2,-0.6
18.332,-0.5,-0.2,-0.6
18.433,-0.9,-0.5,-0.6
18.435,-1.0,-0.6,-0.6
18.449,-0.5,-0.5,-0.5
18.458,-0.5,-0.5,-0.6
18.46,-0.5,-0.6,-0.6
18.528,-0.2,-0.5,-0.5
18.53,-0.1,-0.3,-0.5
18.532,-0.3,-0.2,-0.4
18.534,-0.3,-0.3,-0.3
18.621,-0.1,-0.3,-0.1
18.622,0.3,-0.2,0.1
18.624,0.3,-0.2,0.4
18.634,-0.7,-0.1,0.4
18.635,-0.5,0.1,0.4
18.75,0.2,0.2,0.6
18.752,-0.0,0.2,0.6
18.753,0.2,0.4,0.7
18.755,0.4,0.4,0.8
18.757,0.6,0.5,0.8
18.843,0.7,0.6,0.6
18.844,0.7,0.6,0.6
18.86,0.5,0.6,0.7
18.861,0.4,0.6,0.7
18.863,0.4,0.4,0.7
18.864,0.7,0.4,0.6
18.866,0.7,0.3,0.7
18.923,0.9,0.2,0.7
18.925,1.0,-0.1,0.8
18.927,0.5,-0.2,1.0
19.025,-0.3,-1.2,0.8
19.027,-0.4,-1.8,1.1
19.028,-0.5,-2.3,0.6
19.03,0.3,-2.4,0.6
19.032,0.2,-2.5,0.4
19.136,-1.1,-2.7,0.2
19.138,-1.0,-2.7,0.0
19.139,-0.1,-2.6,0.1
19.141,0.1,-2.5,-0.0
19.142,0.0,-2.2,-0.1
19.221,0.7,-1.8,-0.2
19.238,1.5,-1.1,-0.4
19.24,0.9,-0.6,-0.5
19.242,0.3,-0.0,-0.6
19.245,-0.3,0.6,-0.6
19.325,-0.6,1.2,-0.4
19.33,-0.3,1.9,-0.3
19.332,0.3,2.6,-0.1
19.333,1.0,3.0,0.5
19.335,1.4,2.6,0.2
19.418,-0.6,2.5,0.4
19.42,-1.2,2.4,0.6
19.422,-0.1,2.7,0.7
19.427,0.2,2.5,0.9
19.429,0.8,2.3,0.7
19.535,0.0,1.6,0.6
19.538,-0.4,1.3,0.4
19.54,0.8,1.2,0.1
19.542,2.3,1.0,-0.2
19.544,2.3,0.2,-0.3
19.625,-0.4,-1.1,-0.8
19.627,-1.4,-1.5,-1.1
19.629,-1.0,-2.0,-1.2
19.634,-0.1,-1.1,-1.6
19.635,-2.2,-1.3,-2.3
19.725,-1.7,-1.9,-0.4
19.727,-1.9,-1.9,0.1
19.729,-1.9,-1.8,0.4
19.73,-2.8,-2.3,0.8
19.732,-2.3,-2.1,0.6
19.827,-1.6,-1.9,0.6
19.829,-1.8,-1.7,0.2
19.831,-1.5,-1.4,0.2
19.832,-1.3,-1.1,0.3
19.834,-0.5,-0.6,0.1
19.938,-0.2,-0.2,0.1
19.94,-0.4,0.1,0.1
19.943,-0.2,0.2,0.2
19.945,-0.1,0.4,0.3
19.963,-0.1,0.7,0.3
20.024,0.0,0.7,0.5
20.026,0.1,0.8,0.2
20.027,0.4,0.7,0.2
20.035,0.1,0.5,0.1
20.037,-0.1,0.2,0.2
20.122,0.4,-0.1,0.2
20.129,0.3,-0.5,0.3
20.131,0.7,-0.4,0.2
20.132,0.7,-0.7,0.2
20.134,0.7,-1.0,0.3
20.226,0.8,-1.3,0.4
20.228,1.0,-1.5,0.7
20.229,1.1,-1.5,1.0
20.231,1.0,-1.6,1.3
20.341,1.1,-1.5,1.5
20.343,1.0,-1.5,1.7
20.344,0.2,-1.6,1.9
20.346,-0.2,-1.7,1.9
20.358,0.4,-1.6,1.8
20.425,1.2,-1.1,1.5
20.427,0.9,-0.6,1.6
20.431,-0.7,-0.2,1.4
20.433,-0.6,-0.1,0.9
20.434,-0.2,-0.1,0.9
20.526,-0.3,-0.4,0.9
20.528,-0.8,-0.3,1.0
20.529,-0.6,0.2,0.7
20.531,-1.3,0.4,0.3
20.536,-1.6,0.2,-0.2
20.62,-1.0,-0.1,-0.1
20.622,-1.4,-0.5,0.2
20.624,-2.2,-0.7,0.4
20.625,-2.1,-0.6,0.6
20.636,-2.3,-0.5,0.0
20.732,-0.8,-0.3,-0.1
20.734,-0.1,-0.1,0.5
20.735,1.6,-1.2,1.1
20.747,-1.4,-1.8,1.9
20.748,-2.6,-1.5,2.0
20.824,1.0,-1.7,1.4
20.826,10.3,-0.2,5.0
20.829,10.1,-4.3,5.6
20.831,-24.1,-2.8,-5.8
20.833,-2.6,-3.0,1.3
20.926,6.8,-2.5,1.8
20.928,0.5,-1.9,2.0
20.93,-1.1,-1.5,1.8
20.931,-0.5,-0.9,1.8
20.934,-0.5,-0.4,1.5
21.024,1.3,-0.1,1.6
21.026,-0.6,0.1,1.9
21.027,-0.5,0.4,2.0
21.029,1.0,0.5,2.1
21.031,0.3,0.5,1.9
21.143,0.3,0.6,2.1
21.145,-1.1,0.7,1.8
21.161,-0.7,0.9,0.9
21.164,1.6,1.2,1.1
21.167,1.8,1.1,0.9
21.224,0.2,0.3,1.0
21.225,-0.1,-0.0,1.3
21.227,-0.2,0.1,1.1
21.228,0.7,0.4,0.9
21.235,1.3,0.8,0.7
21.325,1.3,0.8,0.6
21.326,1.3,0.6,0.5
21.328,0.7,0.4,0.5
21.33,1.0,0.3,0.4
21.331,0.9,0.5,0.4
21.42,0.5,0.9,0.2
21.422,0.9,1.4,0.1
21.423,1.7,1.8,0.1
21.425,2.0,2.0,0.1
21.427,1.9,2.4,0.4
21.535,1.1,2.6,0.4
21.546,1.2,2.7,0.4
21.548,2.8,2.9,0.6
21.549,5.3,2.4,0.5
21.551,3.7,1.6,-0.2
21.623,-0.8,0.5,0.2
21.626,-0.7,0.5,0.4
21.627,0.3,0.5,0.3
21.629,0.1,0.3,0.1
21.634,-0.3,0.3,-0.1
21.729,-0.1,0.4,-0.2
21.731,0.2,0.4,-0.2
21.733,0.3,0.3,-0.4
21.734,0.3,0.2,-0.3
21.736,-0.0,0.1,-0.2
21.829,-0.6,0.0,-0.1
21.831,-0.4,0.1,-0.2
21.838,-0.0,0.2,-0.1
21.84,-0.3,0.2,-0.2
21.926,-0.4,0.1,-0.2
21.938,-0.3,0.2,-0.3
21.94,0.0,0.3,-0.4
21.942,0.1,0.3,-0.5
21.944,-0.2,0.3,-0.6
22.02,-0.3,0.2,-0.5
22.026,-0.2,0.2,-0.5
22.028,-0.3,0.1,-0.5
22.029,-0.6,0.1,-0.4
22.031,-0.7,0.0,-0.2
22.12,-0.7,-0.1,-0.1
22.122,-0.7,-0.3,0.2
22.123,-0.8,-0.4,0.3
22.125,-0.6,-0.6,0.5
22.132,-0.3,-0.5,0.6
22.231,-0.5,-0.6,0.8
22.24,-0.7,-0.7,1.0
22.241,-0.4,-0.7,1.1
22.243,-0.1,-0.6,0.8
22.244,-0.1,-0.6,0.4
22.323,-0.1,-0.7,0.7
22.325,-0.3,-0.8,0.8
22.327,-0.4,-0.7,0.7
22.328,-0.5,-0.5,0.7
22.33,-0.4,-0.2,0.4
22.425,0.1,0.3,0.3
22.427,0.5,0.9,0.1
22.429,0.0,1.4,0.1
22.43,0.2,1.6,0.3
22.432,0.2,1.7,0.4
22.525,0.3,2.0,0.4
22.526,0.4,2.3,0.3
22.528,0.4,2.2,0.2
22.529,0.5,2.3,-0.1
22.531,1.0,2.0,-0.1
22.636,0.7,1.6,-0.3
22.637,0.3,1.2,-0.3
22.639,0.6,0.6,-0.6
22.647,-0.2,-0.1,-0.6
22.657,-1.0,-0.8,-1.0
22.72,0.2,-1.0,-0.9
22.722,0.0,-1.1,-0.7
22.723,-0.9,-1.1,-0.8
22.732,-0.2,-1.0,-0.8
22.734,-0.0,-1.4,-1.0
22.825,-0.0,-1.7,-1.0
22.827,-0.0,-1.9,-0.8
22.83,-0.3,-1.8,-0.7
22.832,-0.6,-1.7,-0.7
22.834,-0.5,-1.2,-0.5
22.922,0.3,-0.6,-0.3
22.928,1.4,-0.3,-0.4
22.93,1.4,-0.0,-0.3
22.931,0.9,0.2,0.1
22.933,1.2,0.6,0.3
23.028,1.7,0.9,0.4
23.038,2.9,0.8,0.4
23.04,0.6,0.8,0.6
23.049,-0.7,0.7,0.8
23.051,-0.9,1.0,0.6
23.12,-0.2,1.4,0.5
23.121,0.8,1.6,0.5
23.123,-1.2,1.0,0.3
23.125,-1.9,0.7,0.2
23.126,-0.7,0.7,-0.1
23.22,-0.6,1.1,-0.6
23.221,0.1,0.8,-0.7
23.223,-0.2,0.5,-0.6
23.225,-0.4,0.3,-0.5
23.23,-0.3,0.2,-0.5
23.326,0.0,0.2,-0.6
23.328,-0.1,0.2,-0.4
23.329,-0.4,0.0,-0.4
23.331,-0.5,-0.2,-0.4
23.333,-0.7,-0.1,-0.4
23.442,-1.1,-0.4,-0.4
23.443,-1.1,-0.5,-0.4
23.459,-0.9,-0.5,-0.3
23.461,-0.8,-0.7,-0.3
23.463,-0.9,-1.0,-0.2
23.522,-0.7,-1.2,-0.2
23.524,-0.6,-1.2,-0.1
23.529,-0.4,-1.2,0.1
23.53,-0.4,-1.0,0.4
23.626,-0.3,-0.7,0.5
23.627,-0.4,-0.4,0.4
23.629,-0.3,-0.2,0.4
23.634,-0.8,0.0,0.4
23.636,-0.4,0.2,0.6
23.72,-0.9,0.3,0.7
23.721,-0.7,0.4,0.8
23.723,-0.5,0.5,0.8
23.725,-0.4,0.6,1.0
23.726,-0.6,0.6,1.1
23.839,-0.6,0.7,1.3
23.84,-0.7,0.6,1.2
23.852,-0.4,0.6,1.2
23.853,-0.3,0.5,1.2
23.855,-0.6,0.3,1.4
23.919,-0.6,0.2,1.6
23.921,-0.3,0.1,1.7
23.923,-0.5,-0.1,1.7
23.929,-0.2,-0.4,1.8
23.931,0.1,-0.5,2.0
24.024,0.1,-0.7,2.2
24.025,0.3,-0.9,2.2
24.027,0.8,-1.0,2.5
24.032,0.8,-1.1,2.6
24.034,1.3,-1.3,3.0
24.129,1.6,-1.5,3.1
24.131,1.7,-1.7,3.3
24.132,1.7,-2.0,3.6
24.141,1.2,-2.0,3.6
24.143,1.1,-1.8,3.8
24.22,0.7,-1.5,3.6
24.231,0.8,-1.2,3.4
24.233,0.4,-0.9,2.9
24.234,-0.1,-0.5,2.1
24.236,-0.3,-0.1,1.7
24.324,-0.9,0.1,1.3
24.326,-1.3,0.2,1.1
24.328,-1.1,0.2,1.1
24.33,-0.8,0.3,0.7
24.331,-0.4,0.3,0.7
24.424,-0.3,0.3,0.6
24.425,-0.2,0.1,0.6
24.427,-0.2,-0.0,0.6
24.428,-0.2,-0.3,0.6
24.43,-0.4,-0.5,0.6
24.534,-0.8,-0.6,0.7
24.536,-1.6,-0.7,0.7
24.538,-1.7,-0.9,0.4
24.54,-0.6,-0.8,0.7
24.543,-1.4,-0.5,0.7
24.624,-3.0,-0.3,0.1
24.626,-3.5,0.1,-0.0
24.627,-4.4,0.6,-0.1
24.629,-5.2,0.9,-0.3
24.634,-4.8,1.4,-0.2
24.719,-4.2,1.8,-0.4
24.721,-3.8,2.3,-0.6
24.726,-3.8,2.6,-0.8
24.728,-4.1,2.8,-0.5
24.743,-3.8,2.8,-0.1
24.819,-2.9,3.1,0.3
24.821,-2.2,3.5,0.7
24.822,-3.2,3.7,1.1
24.824,-4.2,3.4,1.7
24.826,-3.7,3.1,2.3
24.936,-2.1,2.8,2.8
24.939,-0.4,2.7,3.3
24.945,0.4,2.8,3.7
24.947,-0.0,2.7,3.7
24.958,-0.4,1.9,3.8
25.024,2.0,1.4,3.5
25.026,4.2,1.4,2.6
25.027,4.4,0.9,1.6
25.029,3.3,0.5,0.8
25.03,1.8,0.2,0.4
25.119,1.2,0.0,0.3
25.121,0.9,-0.0,0.2
25.127,0.1,-0.2,0.1
25.129,-0.7,-0.3,0.3
25.132,-1.1,-0.4,0.4
25.219,-1.1,-0.5,0.5
25.224,-0.9,-0.6,0.2
25.226,-0.4,-0.6,0.1
25.227,-0.4,-0.7,-0.1
25.329,0.1,-0.8,-0.5
25.331,0.8,-0.9,-0.9
25.332,0.7,-1.0,-1.3
25.334,0.6,-1.1,-1.5
25.356,0.6,-1.1,-1.6
25.419,0.9,-1.2,-1.7
25.424,1.3,-1.3,-1.8
25.426,1.6,-1.3,-1.9
25.428,1.5,-1.5,-2.0
25.429,1.5,-1.5,-2.2
25.519,2.0,-1.5,-2.3
25.525,2.5,-1.5,-2.3
25.527,2.6,-1.7,-2.4
25.53,2.3,-1.8,-2.5
25.531,2.0,-1.9,-2.5
25.619,2.2,-1.9,-2.3
25.621,2.4,-2.0,-2.4
25.623,2.3,-2.1,-2.3
25.624,2.0,-2.1,-2.2
25.626,2.1,-2.1,-2.1
25.748,2.1,-2.1,-2.0
25.749,2.1,-2.0,-1.9
25.751,2.1,-1.9,-1.8
25.769,1.9,-1.8,-1.7
25.771,1.9,-1.6,-1.6
25.823,1.9,-1.5,-1.5
25.825,1.8,-1.4,-1.5
25.83,1.8,-1.3,-1.4
25.831,1.8,-1.3,-1.4
25.833,1.6,-1.3,-1.4
25.926,1.4,-1.3,-1.3
25.928,1.4,-1.3,-1.3
25.929,1.4,-1.3,-1.2
25.931,1.2,-1.2,-1.0
25.94,1.0,-1.2,-0.9
26.017,0.8,-1.1,-0.8
26.018,0.7,-1.0,-0.6
26.02,0.6,-0.8,-0.4
26.022,0.4,-0.6,-0.2
26.023,0.2,-0.5,-0.1
26.145,0.0,-0.3,-0.0
26.147,-0.0,-0.2,-0.0
26.156,0.0,-0.0,-0.0
26.158,0.0,0.1,-0.0
26.16,0.0,0.2,0.0
26.219,0.1,0.3,-0.0
26.221,0.1,0.3,-0.1
26.222,-0.0,0.3,-0.1
26.229,-0.1,0.3,-0.1
26.231,-0.1,0.3,-0.2
26.323,0.0,0.2,-0.2
26.324,0.1,0.2,-0.2
26.329,-0.1,0.2,-0.2
26.331,-0.1,0.2,-0.2
26.332,-0.0,0.2,-0.1
26.419,0.1,0.2,-0.1
26.42,0.0,0.1,-0.1
26.427,-0.1,0.1,-0.1
26.429,-0.2,0.1,-0.0
26.43,-0.1,0.1,-0.0
26.529,-0.0,0.1,-0.0
26.539,-0.0,0.1,0.0
26.552,-0.1,0.1,0.0
26.554,-0.1,0.1,0.0
26.556,0.1,0.1,0.0
