vertical_Accel_x,vertical_Accel_y,vertical_Accel_z,accel_time_list
3.935,-8.672,-2.85,0.0
3.796,-8.648,-2.839,0.002
4.068,-7.017,-0.42,0.004
5.718,-8.027,-4.473,0.005
4.942,-7.373,-4.907,0.007
6.278,-9.068,-2.575,0.13
3.02,-8.308,-2.144,0.132
4.62,-7.748,-2.564,0.133
4.22,-9.368,-1.724,0.135
5.708,-7.887,-2.472,0.137
5.554,-7.493,-2.886,0.233
5.266,-7.452,-2.812,0.234
5.398,-7.214,-2.973,0.236
5.33,-7.276,-2.934,0.238
5.487,-7.498,-3.01,0.239
5.481,-7.44,-2.929,0.241
5.336,-7.334,-3.015,0.331
5.184,-7.169,-3.02,0.333
5.33,-7.276,-2.934,0.335
5.314,-7.045,-2.853,0.346
5.166,-7.052,-2.612,0.348
4.0,-7.72,-1.96,0.428
3.96,-7.304,-1.772,0.429
3.8,-6.58,-1.44,0.431
3.26,-5.464,-1.152,0.433
2.54,-4.156,-1.008,0.436
1.92,-3.388,-1.084,0.501
0.573,-3.298,-1.042,0.503
-0.642,-2.874,-1.526,0.504
-2.389,-1.596,-2.391,0.506
-3.489,-1.016,-3.331,0.508
-3.601,0.698,-4.51,0.6
-3.472,0.455,-4.324,0.601
-2.548,2.688,-3.564,0.603
-1.398,5.811,-4.491,0.605
3.045,8.516,-5.795,0.707
1.718,9.475,-8.042,0.709
0.345,11.876,-8.775,0.711
1.109,12.027,-7.991,0.723
8.16,9.481,-2.972,0.827
6.345,10.011,-2.604,0.828
4.691,10.417,-2.647,0.83
4.1,11.2,-1.8,0.832
3.683,12.334,-1.794,0.833
5.951,12.374,5.943,0.903
5.542,13.412,7.59,0.905
5.47,14.698,6.848,0.906
5.698,16.768,5.71,0.908
5.106,16.597,4.771,0.91
3.663,15.569,3.386,0.911
0.663,14.893,2.107,0.918
0.413,13.725,-0.081,1.003
0.93,12.713,-0.528,1.005
0.683,11.911,-0.253,1.007
0.2,10.7,1.7,1.101
-0.685,10.223,2.0,1.103
-1.608,9.838,2.8,1.109
-2.085,9.423,3.7,1.128
-2.1,9.2,4.4,1.13
-1.944,7.749,6.872,1.201
-1.593,7.719,6.747,1.203
-1.212,7.902,6.256,1.204
-0.614,8.363,5.507,1.206
-0.077,8.895,5.288,1.207
1.047,8.902,4.475,1.301
1.092,9.072,3.868,1.303
1.187,8.975,3.519,1.304
0.855,8.53,3.008,1.312
-0.101,8.009,3.075,1.313
0.314,7.975,2.247,1.43
0.989,7.298,1.828,1.432
1.169,6.976,2.233,1.434
1.099,7.309,2.775,1.435
1.238,7.661,3.241,1.441
1.946,7.99,3.039,1.527
1.981,7.969,3.13,1.529
1.716,7.857,4.196,1.54
1.405,7.755,4.624,1.541
1.31,7.911,4.148,1.543
1.814,8.075,4.647,1.544
4.294,6.324,6.086,1.627
4.249,6.206,6.647,1.635
3.965,5.939,7.352,1.637
3.53,5.881,7.269,1.638
3.25,5.898,7.518,1.644
3.277,6.736,7.809,1.715
3.172,7.17,7.787,1.717
3.228,7.83,7.813,1.718
2.974,8.858,8.394,1.724
2.755,9.672,8.219,1.726
1.412,11.182,6.288,1.824
1.624,11.165,6.076,1.825
2.016,11.743,6.184,1.831
2.427,12.225,6.273,1.833
4.452,13.184,4.565,1.927
4.821,13.791,4.888,1.937
4.763,13.474,4.964,1.938
3.658,11.918,4.324,1.94
2.385,10.954,3.662,1.942
1.997,10.633,3.47,1.943
-0.605,11.63,1.088,2.026
-0.538,12.211,1.417,2.028
-0.194,12.284,0.974,2.029
0.194,12.416,1.026,2.031
-0.367,11.933,1.233,2.033
-1.562,10.824,0.144,2.125
-1.756,10.011,0.711,2.126
-1.707,9.113,0.533,2.128
-1.758,8.416,0.556,2.13
-1.824,8.049,0.589,2.131
-2.448,7.816,0.215,2.226
-2.419,7.61,0.298,2.227
-2.395,7.772,0.45,2.229
-2.586,7.657,0.471,2.231
-2.481,7.49,0.502,2.24
0.351,7.659,1.573,2.33
-0.326,7.762,0.949,2.332
-0.236,7.777,0.909,2.333
0.085,7.964,0.957,2.335
0.334,8.106,0.823,2.337
0.506,8.351,0.804,2.426
0.749,9.042,0.866,2.427
0.875,10.279,0.617,2.429
3.072,10.886,-0.526,2.43
3.263,11.781,-1.167,2.432
4.579,12.261,-2.354,2.525
4.774,12.226,-2.742,2.527
4.942,11.818,-2.673,2.528
5.089,11.771,-2.157,2.53
5.695,11.365,-1.688,2.532
6.702,10.511,-2.192,2.625
6.708,10.145,-2.27,2.627
6.609,9.857,-2.462,2.628
6.728,9.87,-2.387,2.638
6.958,10.151,-2.666,2.643
7.111,10.545,-0.668,2.743
7.043,9.674,-0.96,2.744
6.885,9.04,-0.709,2.746
6.883,8.532,-0.598,2.748
7.378,7.642,0.579,2.749
6.611,6.997,0.392,2.824
5.334,6.091,1.375,2.831
4.705,5.48,2.314,2.832
4.633,4.955,2.712,2.834
3.275,4.821,3.183,2.925
2.57,4.572,3.187,2.929
2.732,3.605,4.805,2.938
2.995,3.916,5.016,2.94
3.556,4.453,5.233,2.941
4.337,5.786,3.914,3.025
4.822,6.308,3.592,3.027
4.941,7.206,3.394,3.028
5.02,7.498,3.302,3.044
5.175,7.873,3.427,3.045
5.369,8.443,3.557,3.125
5.353,9.365,3.535,3.126
5.392,9.661,3.639,3.128
5.486,9.431,3.969,3.133
5.751,9.055,4.845,3.135
5.42,8.598,5.502,3.225
5.012,8.359,6.241,3.227
4.469,9.243,8.257,3.228
3.875,8.947,10.627,3.23
3.49,9.001,10.489,3.232
3.166,9.659,9.407,3.326
3.062,10.215,9.046,3.327
3.838,10.485,8.654,3.329
4.208,10.877,8.431,3.333
3.9,12.1,6.3,3.336
4.903,11.933,4.43,3.425
4.021,11.309,4.388,3.426
3.501,10.611,4.01,3.447
3.158,9.782,3.524,3.448
2.795,8.845,2.951,3.451
3.817,7.621,0.925,3.525
3.071,6.904,1.249,3.527
2.699,6.214,1.173,3.528
2.304,5.742,1.207,3.533
2.003,5.357,1.18,3.535
1.745,5.424,-0.168,3.629
1.807,5.733,-0.187,3.631
2.007,6.333,-0.287,3.633
2.411,7.057,-0.334,3.635
1.736,7.957,-0.891,3.636
3.31,8.252,-0.565,3.731
3.461,8.405,-0.75,3.732
3.637,8.186,-1.111,3.734
4.119,8.795,-1.19,3.736
4.672,9.862,-1.484,3.737
5.31,11.152,-2.065,3.825
4.766,11.429,-2.497,3.837
4.41,11.248,-2.395,3.84
5.45,11.348,-2.115,3.841
6.577,11.486,-3.031,3.843
7.378,10.282,-3.691,3.925
6.922,9.498,-3.349,3.926
6.489,9.211,-3.356,3.934
6.556,9.124,-3.962,3.936
7.55,8.298,-4.718,3.938
5.97,9.741,-4.109,4.025
5.894,9.726,-3.743,4.028
7.347,8.973,-3.342,4.03
7.471,8.609,-3.113,4.032
8.018,7.655,-1.182,4.038
7.353,7.113,-0.659,4.125
6.654,6.538,-0.002,4.127
6.056,5.789,0.411,4.128
5.459,5.265,0.581,4.134
5.109,5.227,0.709,4.136
4.635,6.004,0.191,4.225
4.739,6.117,-0.135,4.227
4.726,5.978,-0.157,4.228
4.33,6.291,-0.083,4.23
4.413,7.039,-0.778,4.232
3.874,8.849,-0.317,4.325
4.313,9.925,-0.941,4.327
4.658,10.703,-1.297,4.328
5.783,10.432,-0.398,4.337
5.351,9.504,-0.506,4.338
5.963,8.266,-1.693,4.429
5.496,8.199,-2.126,4.431
5.344,7.911,-2.311,4.433
5.34,8.01,-2.137,4.434
5.494,8.248,-2.039,4.436
4.726,8.83,-1.451,4.524
4.814,8.926,-0.728,4.526
3.733,10.693,-0.165,4.528
3.809,6.984,0.881,4.533
5.035,5.839,-8.152,4.625
5.942,7.266,-4.703,4.627
6.69,6.56,-1.656,4.628
6.213,6.651,-0.537,4.63
5.82,5.779,-2.687,4.631
7.097,9.188,1.393,4.725
7.27,8.581,2.231,4.727
7.293,10.672,1.15,4.728
7.843,10.17,1.533,4.73
7.905,10.42,1.378,4.735
6.088,10.1,-3.553,4.825
5.614,9.367,-4.222,4.827
5.171,8.6,-4.382,4.83
4.671,7.9,-4.082,4.831
4.21,7.433,-3.573,4.833
4.458,6.724,-4.136,4.926
4.461,7.379,-3.819,4.928
4.39,7.649,-4.123,4.929
4.485,7.523,-4.684,4.931
4.528,7.384,-5.376,4.943
4.665,5.624,-7.076,5.0
4.267,5.267,-7.367,5.002
3.796,4.714,-7.42,5.003
3.306,4.329,-7.171,5.005
2.199,4.795,-6.643,5.008
2.189,4.845,-6.029,5.123
2.14,5.098,-5.757,5.13
2.23,5.648,-6.143,5.131
2.774,6.768,-7.529,5.133
4.543,6.949,-8.884,5.226
4.4,4.4,-12.2,5.227
4.324,3.345,-13.106,5.229
3.794,2.739,-13.073,5.231
3.863,3.433,-12.541,5.232
3.18,2.496,-11.945,5.234
2.32,0.404,-11.755,5.325
2.141,-1.092,-11.51,5.331
1.684,-1.163,-11.996,5.333
1.157,-0.429,-11.814,5.344
1.22,-0.096,-11.655,5.346
2.591,-2.083,-10.9,5.424
2.496,-2.613,-10.2,5.425
3.015,-2.347,-9.4,5.428
3.502,-1.943,-9.0,5.43
3.109,-1.817,-8.3,5.432
2.928,-1.351,-7.8,5.526
3.023,-0.821,-6.9,5.533
3.553,-0.915,-6.5,5.535
3.383,-0.809,-6.4,5.537
3.753,-0.215,-5.9,5.538
3.858,-0.045,-5.7,5.629
4.049,0.072,-6.0,5.631
3.985,0.347,-6.4,5.633
4.038,0.432,-6.6,5.634
4.366,0.581,-6.7,5.636
5.034,0.519,-7.0,5.725
5.394,0.53,-7.9,5.726
5.5,0.7,-8.5,5.738
5.404,1.113,-8.5,5.74
5.328,1.749,-8.8,5.75
5.677,2.121,-9.8,5.825
5.868,2.238,-10.9,5.826
5.847,2.015,-11.0,5.828
5.932,1.962,-10.7,5.829
6.134,1.719,-10.2,5.832
6.949,2.272,-10.8,5.924
7.868,3.938,-11.1,5.926
7.411,4.34,-11.3,5.928
6.394,4.03,-11.4,5.93
6.172,4.051,-11.7,5.931
5.791,3.817,-12.0,6.025
4.032,2.652,-12.787,6.031
3.078,0.212,-13.253,6.032
2.937,0.216,-12.104,6.034
2.694,0.131,-11.133,6.036
3.243,1.05,-9.642,6.124
2.834,1.169,-8.472,6.136
2.401,1.153,-7.408,6.138
2.349,1.27,-6.788,6.141
2.321,1.475,-6.571,6.143
1.163,0.396,-7.01,6.224
1.043,0.21,-6.975,6.225
1.012,0.212,-7.07,6.227
1.067,-1.502,-6.842,6.235
1.251,-1.352,-7.132,6.324
1.403,-1.309,-7.289,6.326
1.592,-1.675,-7.395,6.328
1.78,-2.04,-7.5,6.333
1.846,-2.339,-7.579,6.339
1.934,-2.201,-7.521,6.424
1.817,-2.151,-7.811,6.426
1.921,-2.263,-8.563,6.432
1.907,-2.622,-9.242,6.434
1.865,-2.996,-10.016,6.435
1.715,-3.444,-11.484,6.531
1.556,-3.767,-12.547,6.545
1.991,-3.672,-13.432,6.547
2.622,-3.566,-13.426,6.55
3.02,-3.36,-12.1,6.552
3.684,-1.581,-11.525,6.624
3.484,-1.881,-11.625,6.626
3.245,-2.476,-11.761,6.628
2.699,-3.205,-11.584,6.633
2.329,-3.657,-11.086,6.634
2.018,-4.8,-10.371,6.724
2.263,-4.967,-10.051,6.726
2.133,-4.967,-10.233,6.728
2.881,-2.648,-10.053,6.729
2.805,-1.942,-9.363,6.731
4.361,0.085,-8.42,6.829
4.017,0.082,-8.006,6.831
3.541,0.29,-7.314,6.833
3.184,0.494,-7.028,6.834
3.276,0.453,-7.025,6.836
3.28,1.96,-6.8,6.929
3.172,2.304,-6.4,6.93
3.064,2.648,-6.7,6.932
3.216,2.812,-7.3,6.933
3.492,3.044,-7.6,6.935
4.286,5.004,-6.514,7.024
4.312,4.782,-6.888,7.025
4.241,4.588,-7.259,7.027
4.435,4.947,-7.565,7.029
4.667,4.367,-8.033,7.03
4.843,4.302,-8.357,7.124
5.122,4.551,-8.378,7.13
5.496,4.773,-8.404,7.132
6.116,5.41,-7.884,7.134
6.173,5.908,-7.427,7.135
6.268,4.35,-8.711,7.224
5.775,5.016,-9.442,7.226
5.617,5.482,-10.594,7.228
5.877,5.391,-11.508,7.236
5.951,5.107,-12.05,7.248
5.609,4.841,-12.197,7.324
5.042,4.028,-11.719,7.326
4.364,1.525,-11.7,7.328
4.206,1.27,-11.0,7.329
4.226,1.492,-10.3,7.331
2.56,1.743,-9.889,7.424
2.219,1.771,-9.132,7.426
2.002,1.93,-8.892,7.428
1.797,1.855,-8.361,7.429
1.727,1.676,-8.056,7.431
1.7,-0.28,-8.04,7.525
1.791,-0.353,-7.849,7.527
1.973,-0.238,-7.787,7.529
2.109,0.093,-7.831,7.53
2.3,0.34,-7.88,7.532
0.944,-0.611,-7.889,7.624
1.093,-0.681,-7.619,7.626
1.13,-0.774,-7.626,7.628
1.337,-0.693,-7.607,7.644
1.3,-0.9,-7.9,7.646
1.978,-2.234,-8.374,7.724
2.092,-2.675,-9.395,7.726
1.691,-3.272,-10.132,7.731
1.089,-3.268,-10.268,7.733
0.941,-3.123,-10.563,7.734
-0.007,-4.287,-10.867,7.824
0.04,-4.78,-11.4,7.825
0.887,-5.373,-11.433,7.828
1.747,-5.393,-11.433,7.83
3.231,-6.139,-10.02,7.925
3.045,-6.11,-9.863,7.927
3.098,-6.404,-10.065,7.928
2.878,-7.932,-9.478,7.93
2.28,-8.567,-9.28,7.932
2.267,-9.698,-7.951,8.049
2.376,-9.273,-7.063,8.051
2.676,-8.973,-6.263,8.052
2.833,-8.602,-5.649,8.067
2.92,-8.039,-5.231,8.069
3.744,-7.126,-4.568,8.152
3.675,-6.599,-4.809,8.154
3.556,-6.074,-4.832,8.155
3.804,-5.284,-5.043,8.157
4.039,-4.946,-5.49,8.159
4.144,-5.226,-5.468,8.16
3.771,-5.615,-5.466,8.162
3.224,-5.605,-5.455,8.222
2.767,-5.631,-5.424,8.224
2.669,-5.923,-5.495,8.225
1.204,-6.902,-5.744,8.324
0.927,-7.013,-5.767,8.326
0.507,-6.953,-5.767,8.327
0.169,-6.984,-5.889,8.329
-0.133,-6.933,-5.967,8.331
-0.064,-7.118,-6.356,8.424
-0.507,-7.547,-6.333,8.426
-0.838,-8.031,-6.522,8.435
-1.267,-7.867,-6.933,8.437
-1.707,-8.447,-7.533,8.439
-2.963,-9.87,-6.816,8.524
-3.103,-10.027,-7.126,8.526
-2.565,-10.388,-7.766,8.527
-1.745,-11.401,-7.786,8.529
-0.829,-12.258,-8.282,8.531
-0.456,-11.408,-9.589,8.623
-0.71,-10.289,-9.652,8.625
-1.584,-10.157,-9.196,8.627
-2.289,-10.202,-9.372,8.628
-2.65,-10.546,-9.262,8.634
-5.807,-11.647,-6.467,8.725
-5.728,-12.165,-5.176,8.726
-5.445,-11.97,-4.248,8.728
-4.319,-11.794,-3.004,8.73
-3.911,-10.33,-3.147,8.735
-4.366,-8.515,-3.489,8.824
-3.777,-7.543,-3.392,8.842
-3.428,-6.921,-3.709,8.844
-3.175,-6.689,-3.858,8.845
-3.14,-6.549,-3.513,8.847
-2.877,-7.107,-1.016,8.924
-2.779,-6.918,-1.086,8.926
-2.65,-6.898,-1.138,8.927
-2.548,-6.891,-0.692,8.932
-2.719,-7.175,-0.267,8.934
-4.256,-6.992,0.22,9.024
-4.3,-7.1,0.3,9.026
-4.148,-7.136,0.46,9.027
-4.168,-7.512,1.949,9.029
-4.474,-8.026,2.658,9.031
-4.816,-8.344,3.225,9.124
-5.137,-8.763,3.079,9.125
-5.489,-9.151,2.843,9.127
-5.653,-9.447,2.684,9.129
-5.321,-9.979,3.274,9.13
-3.955,-10.422,5.718,9.224
-3.388,-9.906,5.896,9.225
-3.096,-9.502,5.365,9.227
-3.557,-9.271,4.986,9.229
-4.602,-9.649,5.367,9.23
-3.9,-10.2,5.7,9.324
-3.933,-9.933,6.167,9.325
-3.9,-9.9,6.3,9.328
-3.833,-10.233,6.367,9.33
-3.7,-10.3,6.2,9.332
-2.778,-11.045,3.382,9.424
-2.629,-10.443,2.714,9.425
-2.49,-9.72,1.973,9.427
-2.704,-8.925,-0.002,9.432
-2.292,-8.168,-0.446,9.434
-1.591,-7.817,-1.43,9.523
-1.565,-7.47,-1.522,9.525
-1.448,-7.604,-1.783,9.527
-1.33,-7.739,-2.043,9.528
-0.018,-7.119,-4.26,9.624
0.02,-7.197,-3.857,9.625
-0.164,-7.321,-3.889,9.627
-0.221,-7.845,-4.035,9.628
-0.157,-8.125,-3.946,9.63
-0.141,-8.491,-3.87,9.724
-0.337,-8.622,-3.803,9.725
-0.557,-8.825,-3.946,9.727
-0.677,-9.07,-4.181,9.734
-0.216,-9.576,-4.868,9.736
0.224,-10.528,-5.59,9.823
0.58,-11.803,-6.143,9.825
0.296,-12.969,-6.567,9.827
-0.221,-13.045,-6.435,9.833
-1.466,-12.905,-5.772,9.834
-1.092,-14.611,-1.098,9.924
-1.3,-15.0,-0.0,9.933
-1.258,-15.062,1.06,9.935
-1.123,-15.066,1.394,9.937
-1.121,-14.519,1.37,9.947
-2.301,-13.426,-0.104,10.024
-2.332,-12.84,-0.429,10.025
-2.321,-12.052,-0.885,10.027
-3.398,-11.319,-0.588,10.032
-3.067,-10.907,0.347,10.034
-3.872,-10.096,-1.28,10.124
-3.808,-9.644,-1.32,10.125
-3.54,-9.22,-1.1,10.13
-2.709,-8.724,0.318,10.132
-3.009,-7.751,0.607,10.134
-2.9,-7.059,0.365,10.224
-2.633,-6.496,0.216,10.225
-2.467,-6.116,-0.063,10.227
-2.3,-5.865,-0.159,10.228
-2.133,-5.749,-0.296,10.23
-2.033,-5.702,-0.208,10.322
-2.133,-5.743,-0.073,10.324
-2.1,-6.041,-0.065,10.326
-2.033,-6.367,0.033,10.335
-1.889,-6.989,1.344,10.344
-2.005,-7.76,1.816,10.423
-2.533,-9.12,0.822,10.425
-3.2,-11.2,1.1,10.427
-3.633,-12.284,1.263,10.428
-3.333,-12.278,1.486,10.43
-2.522,-12.476,2.799,10.523
-2.647,-13.167,3.307,10.525
-3.164,-13.952,4.258,10.527
-3.618,-14.822,3.475,10.528
-5.684,-13.501,5.718,10.53
-2.401,-12.981,7.382,10.623
-2.336,-11.684,7.02,10.625
-1.913,-10.576,6.289,10.627
-1.621,-10.045,5.566,10.629
-0.821,-9.745,5.266,10.631
-0.6,-9.44,4.58,10.723
-0.58,-8.932,3.824,10.725
-0.78,-8.572,2.804,10.735
-0.66,-8.224,2.168,10.736
-0.44,-7.796,1.972,10.738
1.256,-7.362,0.576,10.823
1.178,-7.171,0.358,10.825
1.233,-7.133,0.233,10.827
1.444,-7.678,0.644,10.828
0.461,-7.839,-0.248,10.83
0.058,-8.042,-0.506,10.925
0.011,-8.922,-0.322,10.926
0.006,-9.594,0.215,10.928
0.081,-9.853,0.302,10.93
-0.056,-9.889,0.311,10.936
-0.359,-9.81,2.725,11.028
-0.521,-10.29,3.115,11.03
-1.017,-10.629,3.594,11.032
-1.199,-10.51,3.845,11.034
-1.397,-10.329,3.934,11.035
-3.253,-10.594,3.098,11.123
-3.516,-10.867,2.822,11.133
-3.478,-10.745,2.882,11.134
-3.337,-10.627,2.376,11.136
-2.665,-10.498,3.263,11.223
-2.53,-10.396,2.825,11.228
-2.53,-10.396,2.825,11.23
-1.775,-9.93,2.504,11.232
-0.378,-9.516,3.033,11.233
-1.061,-9.492,2.784,11.323
-2.059,-9.639,2.578,11.325
-2.624,-10.137,2.273,11.327
-2.398,-10.747,2.194,11.328
-3.483,-9.744,3.662,11.33
-3.57,-7.249,7.384,11.423
-3.282,-6.59,7.614,11.425
-3.084,-6.181,7.673,11.427
-3.22,-6.101,7.744,11.428
-4.118,-5.093,8.467,11.43
-3.571,-4.246,9.512,11.523
-3.719,-4.496,9.866,11.535
-3.883,-4.623,9.51,11.544
-3.847,-4.491,8.716,11.545
-3.832,-4.234,7.803,11.547
-5.184,-4.004,6.237,11.624
-5.145,-4.139,5.849,11.626
-5.161,-4.335,5.812,11.628
-5.094,-4.327,5.739,11.63
-4.898,-4.276,5.38,11.632
-4.714,-3.8,6.118,11.723
-4.99,-4.0,6.273,11.725
-5.116,-4.0,6.563,11.726
-5.102,-3.8,6.845,11.728
-5.385,-3.8,6.86,11.73
-5.935,-0.786,7.792,11.824
-5.896,-0.462,7.849,11.825
-5.66,-0.216,7.695,11.827
-5.359,-0.057,7.632,11.829
-5.352,-0.139,8.094,11.83
-5.189,1.937,8.916,11.925
-5.002,2.027,9.714,11.927
-4.987,2.11,10.002,11.93
-4.178,2.956,9.756,11.935
-4.111,2.922,9.222,11.937
-2.397,5.414,8.179,12.028
-2.204,5.682,7.861,12.033
-1.198,6.84,7.647,12.036
-0.945,7.451,7.917,12.038
-1.016,8.614,7.073,12.041
-0.58,8.445,7.111,12.124
-0.319,7.967,7.266,12.125
-0.233,7.204,7.092,12.127
-0.364,6.431,6.738,12.129
-0.474,5.815,6.571,12.135
0.232,7.345,4.111,12.223
0.287,7.475,4.119,12.225
0.568,7.655,4.289,12.231
0.806,8.196,5.149,12.232
2.779,9.047,3.987,12.244
9.258,14.339,-8.453,12.324
3.615,12.417,-4.979,12.325
2.51,8.535,-2.998,12.327
1.287,9.369,-2.982,12.333
1.58,10.3,-3.94,12.335
2.449,9.811,-5.024,12.423
2.404,8.977,-5.644,12.425
1.658,8.574,-4.674,12.426
1.318,8.186,-4.519,12.428
1.156,7.835,-4.202,12.43
1.24,7.588,-4.054,12.523
1.633,7.533,-4.167,12.524
1.846,7.604,-4.17,12.526
1.665,7.728,-4.061,12.527
1.605,7.916,-3.916,12.529
1.577,8.298,-3.665,12.628
1.612,8.77,-3.504,12.63
1.591,9.407,-3.44,12.632
1.721,9.863,-3.563,12.65
1.84,9.788,-3.554,12.651
2.764,9.155,-2.845,12.722
2.495,8.702,-2.731,12.724
2.347,8.301,-2.566,12.726
2.2,7.9,-2.4,12.731
2.114,8.034,-2.332,12.733
2.184,8.346,-2.42,12.822
2.479,8.848,-2.452,12.823
2.756,9.078,-2.556,12.825
3.015,9.094,-2.406,12.827
2.981,8.968,-2.199,12.923
2.886,8.966,-2.168,12.924
2.825,9.09,-2.343,12.926
1.006,9.683,-2.829,12.928
1.101,10.064,-3.138,12.929
1.191,10.126,-3.357,13.023
1.035,10.461,-3.51,13.034
0.839,11.016,-3.662,13.035
0.768,11.23,-3.905,13.045
0.82,11.24,-4.2,13.047
2.16,10.6,-3.38,13.122
2.06,9.9,-3.08,13.127
1.842,9.278,-2.771,13.129
1.704,9.156,-2.402,13.131
0.974,9.702,-0.928,13.133
1.667,9.733,-2.333,13.222
1.698,9.922,-2.449,13.224
1.576,10.144,-2.638,13.231
1.658,10.022,-2.729,13.233
0.621,9.704,-3.438,13.236
0.822,9.468,-3.376,13.325
0.946,9.263,-3.429,13.327
0.901,9.164,-3.338,13.329
0.728,8.95,-3.105,13.331
-0.271,8.943,-2.386,13.332
-0.243,8.786,-2.571,13.422
-0.043,8.786,-2.971,13.424
0.196,9.065,-2.902,13.434
0.973,9.324,-3.163,13.436
1.745,10.582,-3.678,13.437
1.674,9.297,-6.035,13.522
1.518,8.64,-7.096,13.524
2.372,8.822,-7.23,13.526
2.665,8.358,-7.561,13.527
2.323,8.39,-7.606,13.529
2.508,9.269,-5.196,13.622
2.308,9.769,-3.496,13.623
2.033,8.778,-3.884,13.625
1.735,8.145,-4.633,13.627
2.059,8.453,-3.82,13.628
0.637,8.849,-3.847,13.727
-0.462,8.822,-3.808,13.729
-0.781,7.697,-3.084,13.73
-0.704,7.312,-3.759,13.732
-0.451,7.414,-4.47,13.747
-2.162,7.718,-3.095,13.822
-2.276,7.664,-2.611,13.835
-2.718,7.582,-2.745,13.844
-2.4,7.8,-3.7,13.846
-1.818,8.582,-5.045,13.848
-1.251,9.278,-3.745,13.922
-2.182,8.688,-2.888,13.924
-1.641,10.294,-1.894,13.926
-2.914,10.898,-2.931,13.927
-0.725,9.239,-3.073,13.929
0.659,9.926,-5.105,14.022
1.441,9.874,-3.195,14.024
1.434,9.021,-1.607,14.025
1.437,8.166,-5.24,14.027
0.766,6.679,-4.393,14.029
1.1,6.2,-5.7,14.122
1.75,6.491,-5.006,14.124
2.298,6.637,-5.378,14.125
2.717,7.351,-5.609,14.129
2.811,6.88,-6.032,14.131
2.729,7.313,-4.452,14.222
3.263,7.034,-4.26,14.224
3.183,6.149,-4.591,14.225
2.909,5.817,-4.21,14.227
2.794,4.81,-4.934,14.229
3.546,5.983,-3.45,14.322
4.38,4.648,-5.736,14.324
4.4,4.84,-4.88,14.325
3.9,4.12,-3.34,14.327
3.52,4.272,-3.704,14.329
2.238,5.219,-2.722,14.426
1.58,6.44,-3.3,14.428
2.296,6.931,-4.511,14.43
2.162,6.864,-5.244,14.431
0.514,5.579,-5.182,14.523
-2.169,6.875,-6.601,14.524
-4.686,8.079,-8.882,14.526
-7.956,9.382,-13.371,14.528
-7.442,8.162,-16.853,14.529
-7.22,5.964,-14.952,14.623
-8.66,4.032,-13.376,14.624
-9.9,2.78,-12.04,14.626
-8.88,3.596,-10.628,14.628
-6.82,1.524,-11.032,14.629
-2.573,4.332,-10.021,14.735
-0.857,5.067,-11.495,14.741
2.043,10.267,-8.395,14.743
2.251,7.295,-8.577,14.744
0.776,3.837,-8.843,14.746
0.116,6.435,-5.874,14.823
0.018,6.944,-5.624,14.824
-0.669,5.278,-7.818,14.826
-0.953,3.667,-10.827,14.827
-2.287,4.633,-9.493,14.829
-1.008,5.472,-6.913,14.923
0.844,4.713,-9.121,14.925
-0.493,3.492,-8.744,14.927
-0.649,5.805,-5.964,14.928
1.004,5.646,-6.272,14.939
-0.0,5.88,-9.34,15.023
-0.38,4.076,-10.268,15.025
-0.74,5.268,-5.024,15.026
1.44,7.272,-5.696,15.028
1.601,6.072,-9.812,15.03
-0.214,6.733,-6.422,15.122
0.667,7.267,-3.567,15.123
2.984,6.867,-7.296,15.125
0.537,6.067,-11.884,15.127
-1.551,5.967,-11.337,15.128
1.544,4.982,-9.071,15.221
1.681,6.161,-7.557,15.223
0.979,5.945,-7.821,15.225
-0.599,5.672,-7.412,15.226
0.364,6.593,-7.926,15.233
0.112,5.636,-8.558,15.322
-0.604,5.912,-6.951,15.324
-0.691,5.62,-6.821,15.326
-1.564,5.607,-7.974,15.337
-0.492,5.348,-8.609,15.338
2.247,5.626,-6.713,15.422
3.462,4.781,-6.378,15.424
4.2,4.6,-3.9,15.426
4.486,3.844,-5.735,15.428
4.187,4.034,-4.89,15.429
3.776,5.337,-5.043,15.522
3.985,5.055,-4.48,15.524
4.595,5.252,-2.227,15.525
4.732,5.48,1.106,15.527
4.404,4.359,-1.219,15.533
3.073,6.487,-2.267,15.624
3.26,6.18,-4.7,15.626
3.378,5.856,-5.456,15.628
3.431,5.482,-5.022,15.63
2.413,6.107,-5.767,15.632
1.346,6.226,-7.095,15.728
1.314,5.879,-8.282,15.73
1.285,6.749,-5.806,15.749
1.739,6.922,-5.11,15.751
1.095,6.94,-5.039,15.752
-0.398,8.356,-6.952,15.822
-1.775,6.93,-7.681,15.824
-2.335,7.01,-7.081,15.826
-4.901,10.122,-9.624,15.827
-6.5,11.0,-10.2,15.829
-7.707,11.553,-11.267,15.922
-8.63,12.301,-12.562,15.924
-11.123,11.926,-11.371,15.925
-10.65,10.661,-6.262,15.935
-8.755,10.482,-11.282,15.937
-5.367,8.533,-7.833,16.022
-2.212,9.359,-7.762,16.024
0.458,8.51,-5.248,16.025
1.684,6.981,-7.003,16.027
0.032,7.539,-4.894,16.029
-1.785,7.125,-3.557,16.121
-2.886,8.43,-3.617,16.134
-1.886,8.93,-5.417,16.137
-1.501,8.005,-7.26,16.139
-1.584,6.319,-5.097,16.225
0.224,9.082,-3.175,16.226
0.852,7.642,-7.01,16.228
-1.546,6.751,-6.543,16.236
-0.829,8.557,-4.514,16.237
-0.275,7.43,-5.181,16.322
2.791,8.397,-5.814,16.324
1.499,7.922,-6.024,16.325
-0.984,7.949,-4.243,16.327
1.713,8.835,-5.183,16.329
0.165,7.02,-8.062,16.422
0.463,8.307,-6.557,16.424
0.958,5.024,-9.894,16.425
1.166,7.377,-9.714,16.427
0.192,7.647,-7.68,16.429
-1.476,7.558,-2.961,16.522
0.328,7.384,-8.671,16.534
-0.072,7.684,-6.071,16.536
-0.749,7.128,-6.026,16.538
-1.998,6.913,-6.605,16.539
-0.78,7.815,-4.332,16.622
-0.861,7.607,-4.321,16.624
-1.408,7.689,-5.919,16.625
-0.69,7.658,-5.766,16.627
-0.694,7.764,-5.596,16.632
-1.234,8.357,-4.685,16.722
-1.023,8.096,-4.209,16.728
-0.081,7.649,-6.402,16.73
-0.021,8.323,-5.953,16.732
-0.157,8.453,-4.794,16.733
0.043,7.753,-4.994,16.822
0.013,8.866,-4.768,16.824
0.817,8.521,-4.557,16.825
0.723,7.804,-4.091,16.827
0.515,8.594,-3.713,16.828
-1.426,8.119,-4.348,16.922
-1.03,7.993,-4.541,16.924
-0.619,7.97,-4.563,16.926
-0.026,7.919,-4.348,16.929
0.863,7.841,-4.026,16.93
0.956,6.38,-5.005,17.022
1.591,7.353,-2.816,17.023
1.729,7.245,-6.061,17.025
1.844,7.522,-8.256,17.027
3.818,9.889,-2.442,17.028
3.5,8.7,-1.6,17.122
4.2,8.476,0.132,17.128
5.6,9.24,-3.32,17.131
5.0,9.504,-5.272,17.133
3.3,8.772,-5.996,17.135
3.3,6.796,-5.628,17.223
2.7,6.88,-5.34,17.225
1.4,8.336,-2.848,17.227
2.0,10.992,-4.456,17.228
3.3,11.868,-5.024,17.241
1.914,10.101,-2.801,17.326
-0.081,7.366,-0.266,17.327
-0.136,6.555,-0.755,17.329
-0.407,9.649,-0.949,17.33
-0.824,16.27,-2.17,17.332
-0.676,15.31,-1.157,17.422
0.843,9.059,1.355,17.423
2.505,5.56,2.83,17.425
3.8,3.7,4.3,17.433
5.017,3.865,5.301,17.436
6.0,5.1,5.8,17.523
6.061,4.609,3.968,17.524
4.265,8.535,-5.347,17.531
5.406,7.094,-1.559,17.533
3.704,8.996,2.227,17.535
3.122,10.656,3.456,17.622
1.204,12.793,0.026,17.624
0.244,9.511,4.011,17.625
-0.374,9.548,5.581,17.648
-1.389,5.778,7.678,17.65
-2.822,8.684,7.245,17.721
-3.316,6.143,7.951,17.723
-2.61,3.702,8.157,17.725
-1.51,3.302,7.657,17.726
0.718,4.418,7.855,17.823
-1.336,4.364,9.191,17.825
-1.473,0.527,11.182,17.832
0.355,3.155,22.764,17.834
-6.255,3.745,8.436,17.836
-3.549,18.358,6.068,17.922
-3.884,7.423,8.207,17.928
-1.275,5.243,5.828,17.93
-2.807,6.991,7.651,17.931
-1.888,12.341,5.838,17.933
-1.59,11.852,2.958,18.022
-1.948,9.842,3.11,18.024
-3.92,9.402,6.144,18.025
-3.706,12.332,4.661,18.038
-0.151,11.053,2.43,18.041
4.18,6.628,6.596,18.123
2.8,8.9,3.3,18.128
0.78,5.808,6.356,18.13
0.02,5.532,7.024,18.131
1.0,8.06,5.92,18.133
1.3,10.1,4.2,18.222
0.62,8.932,5.324,18.224
0.8,5.1,6.7,18.225
0.76,6.736,6.552,18.227
-0.2,8.8,5.1,18.228
0.36,8.716,5.912,18.322
0.78,8.728,5.796,18.323
-0.46,6.424,6.068,18.325
-1.175,5.053,7.511,18.327
-0.075,5.953,7.111,18.328
-0.232,7.72,6.806,18.422
0.055,5.854,6.996,18.423
0.672,4.678,8.525,18.435
1.219,7.714,6.884,18.437
0.546,5.936,6.959,18.439
0.675,4.747,8.989,18.521
1.528,5.922,8.075,18.523
2.121,7.294,7.393,18.524
0.72,4.904,8.038,18.526
1.243,3.667,8.995,18.528
1.375,4.547,8.389,18.621
1.59,6.503,6.954,18.623
2.171,6.889,7.97,18.625
0.841,4.488,8.186,18.626
2.543,4.667,7.695,18.628
1.155,6.854,7.896,18.746
1.869,4.909,8.461,18.748
1.188,5.924,7.344,18.75
1.174,6.058,7.734,18.752
0.936,6.439,7.312,18.753
0.46,6.502,7.069,18.823
0.347,7.026,7.013,18.835
0.239,6.608,7.076,18.837
0.026,6.542,7.066,18.846
-0.131,5.409,7.861,18.848
-0.56,6.398,6.531,18.85
0.869,5.876,8.149,18.919
1.727,6.138,8.385,18.924
2.6,7.0,6.2,18.926
9.931,2.224,4.151,18.929
6.282,-1.066,5.046,19.021
7.126,-2.084,5.394,19.023
5.342,-3.261,4.665,19.025
3.034,-0.312,0.925,19.026
6.762,1.833,2.573,19.028
3.88,-0.316,4.412,19.126
4.36,-0.692,4.244,19.128
4.2,1.82,3.76,19.13
4.76,3.368,3.324,19.131
5.42,3.616,5.488,19.133
5.655,5.984,7.504,19.221
6.468,10.205,7.805,19.223
5.151,11.132,8.212,19.225
3.752,10.495,7.735,19.226
1.541,9.163,6.603,19.228
-0.849,8.533,5.063,19.321
-1.476,8.0,5.106,19.327
-2.802,9.333,7.875,19.329
-6.424,15.4,16.294,19.331
-7.486,16.967,3.978,19.332
-4.226,9.938,6.696,19.421
-3.215,5.754,7.553,19.422
-3.344,6.463,6.16,19.424
-4.041,7.192,8.85,19.426
-0.218,12.134,5.846,19.521
-3.014,7.22,4.712,19.523
-2.769,3.724,5.151,19.525
-2.608,6.949,5.06,19.527
-1.957,13.26,3.756,19.533
-0.302,20.553,8.206,19.622
-5.384,18.176,2.151,19.627
-8.251,14.227,0.653,19.629
-9.803,14.735,16.526,19.631
8.841,10.417,3.873,19.632
5.82,0.552,4.664,19.721
-2.22,6.288,8.216,19.723
-0.649,6.181,7.719,19.729
1.774,5.979,7.521,19.731
0.096,4.177,7.723,19.733
2.755,5.155,8.464,19.827
0.573,8.173,9.318,19.83
1.618,5.618,7.155,19.831
2.036,1.036,9.309,19.833
2.509,0.809,9.727,19.835
1.664,6.464,8.591,19.921
1.273,3.273,9.618,19.929
2.973,2.573,7.818,19.93
1.255,3.755,9.064,19.932
2.018,3.718,9.855,19.944
1.482,3.982,8.045,20.021
0.427,3.127,9.682,20.023
0.6,2.9,8.0,20.028
0.191,6.191,8.673,20.03
0.018,2.618,9.055,20.031
-0.164,3.236,9.309,20.121
-0.273,2.827,8.182,20.123
-0.818,1.282,9.345,20.124
0.473,4.973,8.218,20.127
0.645,4.445,8.836,20.128
0.836,3.736,8.809,20.221
1.082,2.982,8.145,20.224
-0.734,3.449,8.847,20.23
-0.17,4.445,8.034,20.232
-0.004,3.994,8.581,20.233
2.522,4.458,8.871,20.321
2.611,6.529,8.536,20.323
2.911,5.009,9.396,20.324
2.511,2.489,8.756,20.337
0.956,-1.996,5.698,20.347
4.734,2.404,11.336,20.421
1.823,3.836,7.191,20.423
3.934,-0.996,11.336,20.424
4.398,2.489,10.392,20.426
4.015,6.691,4.96,20.428
4.281,2.193,5.413,20.522
2.83,-0.484,5.285,20.524
2.171,1.14,5.969,20.526
1.773,0.35,8.178,20.528
2.402,-0.389,9.109,20.53
2.833,3.133,7.733,20.621
2.996,3.496,5.961,20.623
2.522,0.722,6.416,20.624
2.041,-2.059,5.312,20.626
3.492,-4.408,3.622,20.627
4.627,-1.422,6.55,20.721
3.045,1.699,21.646,20.723
-0.83,10.085,15.284,20.734
-2.363,1.534,5.603,20.736
-3.154,-5.655,8.801,20.739
0.433,-10.727,2.3,20.821
-17.581,-15.488,19.0,20.823
24.624,44.762,19.3,20.824
-29.2,-37.4,-12.6,20.826
14.9,-10.3,10.5,20.828
-4.112,11.252,20.064,20.922
0.768,-3.306,12.826,20.923
2.718,-2.133,11.049,20.925
3.703,-5.163,10.034,20.927
3.43,-4.585,9.384,20.933
4.175,3.198,13.247,21.022
6.845,-4.181,9.028,21.024
6.632,-8.328,9.608,21.029
3.277,-5.609,12.336,21.031
2.132,-4.314,8.489,21.121
0.815,-0.804,7.75,21.123
3.823,-7.382,1.048,21.145
5.784,-8.943,1.505,21.147
1.761,-6.714,9.602,21.149
1.251,-7.055,14.748,21.221
1.18,-8.622,8.359,21.222
2.093,-4.941,6.52,21.227
3.931,-5.777,3.008,21.229
2.984,-5.852,5.149,21.231
1.429,-8.957,6.686,21.325
1.3,-11.5,6.6,21.327
0.298,-9.382,6.508,21.329
-0.8,-8.971,5.135,21.33
1.3,-5.538,4.461,21.332
1.3,-6.053,3.443,21.421
0.4,-5.856,0.975,21.422
-1.2,-5.021,2.646,21.424
-2.453,-5.588,5.122,21.426
-3.676,-3.498,5.52,21.427
-4.455,-3.28,6.904,21.521
-4.731,-3.178,6.024,21.532
-4.459,-4.263,4.267,21.534
-7.588,-10.849,8.61,21.535
-3.817,-9.966,17.974,21.542
2.833,-0.86,19.251,21.621
-3.159,-2.752,9.107,21.622
-3.366,-4.07,9.724,21.624
-3.948,-4.776,12.982,21.626
-3.377,-1.957,11.122,21.627
-0.636,-1.109,7.63,21.723
-0.327,-4.902,8.386,21.725
0.356,-6.017,8.374,21.727
2.033,-6.06,8.651,21.729
3.414,-4.154,9.393,21.731
3.579,-4.164,9.623,21.82
0.531,-5.139,6.806,21.822
0.535,-5.08,8.197,21.823
0.068,-4.25,9.521,21.825
-0.072,-3.508,10.087,21.827
-0.791,-4.879,7.928,21.922
0.045,-5.76,6.936,21.924
0.275,-4.534,9.426,21.93
0.175,-4.834,9.326,21.932
1.043,-4.725,8.63,21.933
0.382,-4.182,8.345,22.021
0.118,-3.518,9.455,22.022
-0.418,-3.382,9.245,22.024
-1.136,-3.664,7.891,22.026
-0.2,-4.7,8.4,22.027
0.218,-4.618,7.955,22.121
-0.909,-3.991,8.673,22.122
-1.209,-4.591,6.373,22.124
-1.0,-5.2,7.4,22.125
0.573,-4.673,9.018,22.127
1.768,-7.491,7.404,22.221
1.006,-5.508,8.417,22.222
0.019,-5.558,8.357,22.224
-0.517,-5.777,9.349,22.226
1.84,-6.453,6.019,22.237
0.555,-6.64,7.964,22.321
0.111,-6.222,6.499,22.322
-0.274,-6.251,8.016,22.324
-0.75,-6.101,7.977,22.329
-1.168,-5.763,5.643,22.331
-1.281,-7.038,9.835,22.423
0.822,-6.444,8.798,22.424
3.061,-5.623,8.776,22.426
0.643,-6.385,8.642,22.427
0.709,-5.779,7.028,22.433
1.669,-5.925,7.849,22.521
1.508,-5.544,7.988,22.527
0.465,-5.32,8.04,22.528
1.002,-6.17,8.039,22.53
3.2,-5.3,5.2,22.532
3.9,-8.2,1.6,22.621
5.967,-7.767,1.333,22.623
6.467,-7.067,5.933,22.625
5.767,-5.167,1.833,22.638
4.533,-5.333,-1.433,22.643
2.942,-1.177,3.34,22.722
2.718,-0.725,3.129,22.724
2.801,-3.59,-0.445,22.726
5.065,-6.451,0.342,22.727
4.682,-7.833,2.169,22.82
4.095,-6.54,2.239,22.822
2.855,-4.646,3.717,22.824
2.205,-3.36,3.661,22.825
2.882,-2.833,1.469,22.827
2.849,-4.042,1.232,22.92
1.915,-6.651,4.294,22.923
1.978,-6.973,7.608,22.925
1.206,-5.308,9.617,22.927
-1.453,-5.396,10.742,22.929
-2.482,-4.418,14.055,23.02
-4.873,-13.127,20.582,23.022
-4.9,-0.2,22.1,23.024
-11.082,-4.418,17.655,23.034
-10.609,-3.691,17.873,23.035
-8.32,-4.68,12.729,23.12
-5.912,-5.988,15.799,23.122
-4.926,-4.974,22.067,23.124
-6.433,-2.367,16.351,23.125
-8.69,-5.21,13.647,23.127
-5.4,-2.0,11.0,23.22
4.167,-7.567,6.233,23.222
4.8,-6.2,7.1,23.224
2.067,-6.167,6.933,23.225
-0.967,-5.533,6.767,23.227
-1.861,-7.008,6.276,23.32
-0.186,-6.056,7.765,23.322
1.143,-7.167,7.095,23.324
-0.346,-5.764,7.141,23.325
-0.572,-7.022,6.675,23.333
1.197,-4.391,7.771,23.42
-2.064,-5.485,7.034,23.422
1.084,-6.68,9.269,23.437
1.368,-5.461,8.738,23.447
-0.038,-5.706,7.837,23.449
-1.652,-7.27,6.52,23.52
-2.789,-6.864,3.346,23.525
0.175,-8.457,4.472,23.526
0.067,-7.681,5.675,23.528
0.656,-7.018,6.929,23.53
0.105,-7.66,7.161,23.621
1.293,-7.124,7.803,23.628
0.373,-7.613,6.548,23.63
-0.799,-8.872,4.112,23.631
1.463,-7.321,7.014,23.633
-0.277,-7.699,6.404,23.72
0.361,-7.578,6.79,23.722
-0.838,-7.85,5.902,23.723
0.854,-6.874,6.505,23.725
-1.296,-7.688,5.649,23.727
0.602,-7.689,4.08,23.82
-0.257,-8.185,5.191,23.832
0.039,-8.406,5.132,23.842
1.122,-8.492,5.796,23.844
-0.639,-8.194,4.668,23.846
-0.655,-9.092,3.225,23.92
0.235,-8.376,4.676,23.922
0.316,-9.045,3.778,23.923
-0.465,-8.476,4.376,23.925
0.678,-7.925,4.692,23.927
-0.663,-8.542,3.105,24.02
-1.412,-8.961,2.753,24.022
-0.499,-8.613,4.032,24.024
0.706,-7.576,3.389,24.029
1.105,-7.763,3.758,24.03
0.261,-8.508,3.508,24.12
1.954,-6.26,4.76,24.122
2.21,-8.191,4.391,24.123
2.85,-6.818,4.318,24.125
2.924,-7.323,4.223,24.127
4.127,-9.569,2.211,24.221
6.773,-10.551,4.629,24.222
6.273,-10.671,3.469,24.224
5.227,-9.449,1.871,24.226
4.9,-10.12,0.84,24.227
2.947,-11.035,-1.865,24.32
3.682,-11.312,-1.088,24.322
1.426,-9.544,-0.541,24.33
3.788,-8.391,-0.14,24.331
3.889,-8.816,1.038,24.42
2.847,-9.386,0.404,24.421
1.119,-8.864,-0.49,24.423
-0.724,-9.707,-1.502,24.425
-2.01,-7.662,-3.359,24.431
-0.589,-7.714,-2.763,24.52
-1.296,-8.305,-2.788,24.522
-2.185,-5.819,-3.15,24.524
-0.64,-3.6,-2.48,24.529
1.19,-8.638,-0.881,24.531
-1.545,-7.251,-0.778,24.62
-1.114,-5.537,-2.58,24.621
-0.465,-5.947,-2.865,24.628
-0.306,-4.659,-2.706,24.629
-1.153,-1.329,-5.253,24.631
1.596,-2.834,-6.881,24.72
2.285,-4.635,-7.725,24.722
1.74,-6.238,-8.101,24.723
2.325,-7.673,-6.126,24.725
1.324,-7.381,-4.721,24.726
3.653,-6.486,-2.896,24.82
2.992,-6.606,-3.573,24.821
0.609,-8.768,-3.905,24.823
-1.484,-10.088,-5.054,24.824
-1.496,-8.097,-6.813,24.826
2.808,-3.98,-9.356,24.92
1.976,-1.96,-12.732,24.922
-0.016,-2.44,-15.988,24.928
-2.156,-5.74,-19.008,24.93
-3.356,-7.94,-19.608,24.943
3.131,-3.135,-17.317,25.021
1.825,-2.941,-15.369,25.022
-0.173,-5.896,-14.222,25.024
0.5,-6.1,-12.1,25.026
0.453,-5.392,-10.745,25.027
-0.493,-5.31,-9.229,25.12
-0.854,-5.895,-8.235,25.122
-0.641,-6.198,-7.914,25.123
-0.026,-5.677,-8.763,25.125
0.292,-3.931,-9.381,25.127
0.446,-3.195,-9.535,25.219
0.956,-1.822,-10.444,25.221
1.932,-0.775,-9.977,25.222
2.269,-1.384,-10.213,25.224
1.848,-1.112,-10.115,25.226
2.397,-1.324,-9.93,25.321
2.976,-1.794,-10.942,25.323
2.889,-1.756,-10.911,25.325
2.995,-1.907,-10.751,25.335
2.849,-2.371,-10.905,25.336
1.226,-4.842,-10.566,25.42
1.521,-5.494,-9.993,25.422
1.289,-5.913,-9.199,25.423
1.313,-5.466,-9.61,25.425
1.778,-5.016,-9.653,25.426
-0.301,-7.768,-8.208,25.52
-0.211,-9.344,-7.789,25.521
0.208,-10.059,-7.535,25.523
0.277,-9.357,-7.486,25.525
0.486,-8.747,-6.313,25.526
-1.922,-10.572,-4.376,25.62
-1.114,-10.443,-4.271,25.621
-0.68,-10.76,-3.6,25.623
-0.559,-10.891,-0.397,25.625
-1.62,-10.16,0.2,25.626
-1.404,-9.472,0.6,25.74
-0.884,-9.112,0.3,25.742
-0.528,-8.904,1.1,25.751
-0.104,-8.572,1.5,25.753
0.528,-8.596,1.3,25.755
-0.835,-8.035,4.053,25.82
-0.549,-8.249,4.357,25.825
0.039,-8.561,4.275,25.827
-0.084,-9.084,5.01,25.829
0.141,-8.959,4.688,25.83
-0.277,-7.714,4.511,25.926
0.094,-7.371,4.697,25.928
0.489,-6.743,4.794,25.929
0.965,-6.39,4.699,25.931
1.193,-5.533,4.813,25.933
1.983,-4.057,5.279,26.019
1.836,-3.791,4.564,26.021
2.04,-3.923,4.593,26.022
2.188,-4.403,4.812,26.024
1.22,-4.712,5.567,26.12
1.451,-4.831,5.718,26.121
0.927,-5.396,5.878,26.14
0.969,-5.982,5.949,26.15
1.053,-5.892,6.355,26.152
2.448,-6.088,6.652,26.22
2.362,-6.693,6.572,26.221
2.451,-6.804,6.816,26.223
2.371,-6.766,6.863,26.225
2.08,-6.838,6.854,26.226
2.664,-6.46,7.03,26.32
2.66,-6.449,7.274,26.322
2.709,-6.321,7.311,26.327
2.619,-6.298,7.349,26.328
2.481,-6.502,7.151,26.33
2.749,-6.572,7.036,26.42
2.834,-6.385,7.643,26.421
2.977,-6.191,7.596,26.423
2.94,-6.151,7.226,26.424
2.717,-6.243,7.021,26.426
2.883,-6.557,7.079,26.52
2.887,-6.368,7.234,26.529
2.802,-6.255,7.228,26.533
2.717,-6.243,7.021,26.535
2.449,-6.372,6.736,26.536
