gyro_time_list,gyro_x_list,gyro_y_list,gyro_z_list
0.0,0.3,0.1,-0.0
0.001,0.2,0.1,-0.1
0.003,0.2,0.1,0.0
0.103,-0.1,-0.1,-0.1
0.104,-0.2,0.1,-0.1
0.106,-0.2,0.1,-0.0
0.107,-0.2,0.0,-0.0
0.109,-0.4,-0.0,-0.0
0.225,-0.7,-0.0,-0.1
0.226,-0.6,-0.0,-0.1
0.228,-0.1,0.0,-0.1
0.229,0.3,0.1,-0.1
0.231,0.4,0.1,0.0
0.338,0.4,0.1,-0.0
0.341,0.1,0.1,-0.1
0.349,0.0,0.0,-0.0
0.351,-0.0,-0.0,-0.0
0.355,0.0,-0.0,0.0
0.356,0.1,0.0,0.0
0.425,-0.0,0.0,0.0
0.426,0.0,-0.0,0.0
0.428,0.0,-0.0,0.0
0.43,-0.1,-0.0,-0.0
0.431,-0.2,-0.0,0.0
0.524,-0.2,0.0,-0.0
0.525,-0.0,0.0,0.0
0.527,0.1,0.0,-0.0
0.532,0.1,0.0,-0.1
0.533,0.1,0.0,-0.1
0.62,-0.1,0.0,-0.1
0.621,-0.1,0.0,-0.2
0.627,-0.1,0.0,-0.2
0.629,-0.0,0.0,-0.1
0.63,0.0,0.0,-0.1
0.728,0.0,0.0,-0.2
0.729,-0.0,-0.0,-0.1
0.738,-0.1,-0.0,-0.0
0.74,-0.0,-0.0,0.1
0.749,0.1,-0.0,0.1
0.82,0.1,-0.0,0.2
0.821,0.0,-0.0,0.1
0.823,-0.1,-0.0,0.1
0.828,-0.1,-0.0,0.1
0.83,-0.1,-0.0,0.1
0.922,-0.1,-0.0,0.1
0.924,0.1,-0.0,0.1
0.925,0.0,-0.0,0.0
0.927,-0.2,-0.0,-0.0
0.929,-0.2,-0.0,-0.0
1.029,-0.1,-0.0,0.0
1.03,0.0,-0.0,0.1
1.032,0.1,0.0,0.0
1.033,-0.0,0.0,0.1
1.035,0.0,0.1,0.1
1.147,0.1,0.1,0.1
1.149,0.1,0.1,0.1
1.15,0.0,0.0,0.1
1.16,-0.0,0.0,0.1
1.168,-0.1,0.0,0.0
1.228,-0.1,0.0,0.1
1.23,-0.2,0.0,-0.0
1.231,-0.3,0.0,-0.0
1.236,-0.2,0.0,0.0
1.238,0.0,0.1,0.0
1.32,0.1,0.1,-0.0
1.321,0.0,0.0,-0.0
1.323,-0.1,0.0,0.1
1.325,-0.1,0.0,0.1
1.326,0.0,0.0,0.2
1.424,0.1,0.1,0.2
1.426,0.2,0.1,0.2
1.43,0.4,0.1,0.2
1.432,0.4,0.1,0.1
1.433,0.1,0.0,-0.1
1.533,-0.3,0.0,-0.1
1.535,-0.4,0.0,-0.1
1.545,-0.1,0.1,-0.1
1.547,0.3,0.1,-0.0
1.548,0.3,0.1,-0.1
1.619,0.0,0.1,-0.1
1.621,-0.1,0.1,-0.2
1.623,0.1,0.0,-0.1
1.624,0.3,0.1,0.1
1.634,0.3,0.0,0.1
1.725,0.1,0.0,0.2
1.726,-0.1,-0.0,0.1
1.731,-0.5,-0.1,-0.2
1.733,-0.3,-0.0,-0.0
1.824,0.1,0.0,0.0
1.827,0.1,-0.0,-0.0
1.828,0.1,-0.0,-0.0
1.83,0.0,-0.0,-0.1
1.832,0.0,-0.0,-0.0
1.833,0.1,-0.0,-0.0
1.936,0.1,-0.0,-0.0
1.946,0.1,-0.0,-0.0
1.947,0.1,-0.0,0.0
1.949,0.1,-0.0,0.0
2.027,0.0,-0.0,0.0
2.029,0.0,0.0,0.0
2.03,0.0,0.0,0.0
2.032,0.0,0.0,0.0
2.033,0.0,0.0,0.0
2.14,0.0,0.0,-0.0
2.141,0.0,0.0,-0.0
2.143,0.0,0.0,0.0
2.145,0.0,0.0,0.0
2.146,-0.0,0.0,0.0
2.236,-0.0,0.0,0.0
2.237,0.0,0.0,0.0
2.239,0.0,0.0,0.0
2.241,0.0,0.0,-0.0
2.242,0.0,0.0,0.0
2.319,0.0,0.0,0.0
2.329,0.0,0.0,0.0
2.33,0.0,0.0,0.0
2.34,0.0,0.0,-0.0
2.342,0.0,0.0,-0.0
2.423,0.0,0.1,-0.0
2.424,0.0,0.1,0.0
2.426,0.0,0.1,-0.0
2.427,0.0,0.1,-0.0
2.432,-0.0,0.2,-0.0
2.519,-0.0,0.2,-0.0
2.521,-0.1,0.2,-0.0
2.523,-0.1,0.3,-0.0
2.524,-0.0,0.3,-0.0
2.526,0.0,0.3,-0.0
2.63,-0.0,0.3,-0.0
2.631,-0.0,0.3,-0.0
2.636,-0.0,0.3,-0.0
2.638,-0.1,0.4,-0.0
2.64,-0.1,0.4,-0.0
2.723,-0.1,0.4,-0.0
2.725,-0.1,0.4,-0.0
2.727,-0.2,0.4,-0.0
2.728,-0.2,0.4,-0.0
2.73,-0.2,0.5,-0.1
2.823,-0.2,0.4,-0.1
2.828,-0.2,0.4,-0.1
2.83,-0.2,0.4,-0.2
2.831,-0.2,0.4,-0.2
2.833,-0.3,0.4,-0.2
2.919,-0.3,0.4,-0.2
2.925,-0.3,0.4,-0.1
2.927,-0.2,0.4,-0.1
2.928,-0.2,0.4,-0.1
2.93,-0.2,0.4,-0.0
3.035,-0.2,0.4,-0.0
3.037,-0.2,0.4,-0.0
3.038,-0.1,0.3,-0.0
3.04,-0.1,0.3,-0.1
3.05,-0.2,0.2,-0.1
3.123,-0.2,0.2,-0.1
3.129,-0.2,0.3,-0.1
3.13,-0.2,0.3,-0.1
3.132,-0.2,0.4,-0.1
3.133,-0.1,0.4,-0.1
3.194,-0.1,0.5,-0.1
3.195,0.1,0.6,0.0
3.197,0.2,0.6,0.0
3.199,0.4,0.6,0.0
3.2,0.4,0.6,-0.0
3.324,0.4,0.5,-0.1
3.325,0.4,0.5,-0.1
3.327,0.3,0.4,-0.1
3.433,0.2,0.4,-0.1
3.434,0.2,0.3,-0.1
3.436,0.2,0.3,-0.1
3.443,0.2,0.3,-0.0
3.445,0.2,0.3,-0.0
3.454,0.3,0.3,-0.0
3.524,0.3,0.3,-0.0
3.525,0.3,0.3,-0.0
3.527,0.3,0.2,-0.0
3.531,0.2,0.2,-0.0
3.533,0.1,0.2,0.0
3.619,0.0,0.2,0.0
3.62,-0.0,0.2,0.1
3.625,-0.1,0.2,0.1
3.627,-0.1,0.2,0.1
3.629,-0.0,0.2,0.1
3.719,-0.0,0.2,0.1
3.721,-0.0,0.1,0.1
3.722,-0.0,0.1,0.1
3.724,-0.0,0.1,0.1
3.725,0.0,0.1,0.0
3.834,-0.0,0.1,0.0
3.836,-0.0,0.1,0.0
3.838,-0.1,0.0,0.0
3.847,-0.1,0.0,0.1
3.849,-0.1,-0.0,0.1
3.923,-0.1,0.0,0.1
3.924,-0.1,0.0,0.1
3.926,0.0,0.1,0.1
3.933,0.1,0.1,0.1
3.935,0.1,0.2,0.1
4.022,0.2,0.2,0.1
4.024,0.3,0.2,0.1
4.026,0.3,0.2,0.1
4.027,0.2,0.1,0.1
4.033,0.2,0.1,0.0
4.125,0.2,0.1,-0.0
4.127,0.2,0.2,-0.1
4.133,0.3,0.2,-0.1
4.134,0.3,0.2,-0.2
4.136,0.4,0.2,-0.2
4.225,0.4,0.2,-0.3
4.227,0.4,0.2,-0.3
4.244,0.4,0.2,-0.3
4.246,0.4,0.2,-0.4
4.247,0.4,0.2,-0.4
4.323,0.4,0.1,-0.4
4.324,0.3,0.1,-0.5
4.326,0.2,0.1,-0.5
4.327,0.2,0.1,-0.5
4.332,0.2,0.1,-0.4
4.398,0.2,0.1,-0.4
4.4,0.2,0.1,-0.4
4.402,0.2,0.1,-0.3
4.403,0.2,0.2,-0.2
4.405,0.2,0.2,-0.1
4.524,0.2,0.2,-0.1
4.525,0.2,0.2,0.0
4.528,0.1,0.3,0.1
4.53,0.1,0.3,0.3
4.64,0.2,0.3,0.4
4.642,0.2,0.3,0.5
4.652,0.3,0.3,0.5
4.659,0.3,0.3,0.5
4.66,0.3,0.2,0.4
4.662,0.2,0.2,0.4
4.719,0.2,0.2,0.3
4.72,0.2,0.1,0.2
4.722,0.2,0.0,0.1
4.724,0.2,-0.0,0.0
4.725,0.1,-0.1,-0.1
4.825,0.1,-0.1,-0.1
4.827,-0.0,-0.1,-0.2
4.829,-0.1,-0.2,-0.2
4.83,-0.2,-0.2,-0.2
4.832,-0.2,-0.2,-0.1
4.927,-0.2,-0.2,-0.1
4.928,-0.2,-0.2,-0.0
4.931,-0.1,-0.2,-0.0
4.932,-0.1,-0.2,-0.1
4.934,-0.1,-0.2,-0.1
5.023,-0.2,-0.2,-0.1
5.024,-0.3,-0.2,-0.2
5.027,-0.2,-0.2,-0.2
5.029,-0.2,-0.2,-0.3
5.035,-0.0,-0.2,-0.3
5.124,-0.0,-0.2,-0.3
5.127,-0.1,-0.2,-0.3
5.133,-0.2,-0.3,-0.4
5.135,-0.3,-0.3,-0.5
5.22,-0.4,-0.4,-0.5
5.221,-0.4,-0.4,-0.5
5.223,-0.2,-0.3,-0.4
5.229,-0.1,-0.3,-0.3
5.231,0.0,-0.3,-0.3
5.327,0.1,-0.3,-0.3
5.328,0.2,-0.3,-0.2
5.33,0.2,-0.3,-0.2
5.337,0.2,-0.2,-0.2
5.338,0.2,-0.2,-0.2
5.418,0.2,-0.3,-0.2
5.422,0.1,-0.3,-0.2
5.427,0.1,-0.3,-0.2
5.429,0.1,-0.3,-0.2
5.431,0.0,-0.3,-0.1
5.523,-0.1,-0.2,-0.1
5.525,-0.2,-0.2,-0.1
5.526,-0.1,-0.2,-0.0
5.528,-0.0,-0.1,0.0
5.53,-0.0,-0.1,0.1
5.619,-0.0,-0.1,0.1
5.625,-0.1,-0.1,0.1
5.628,-0.1,-0.2,0.1
5.63,-0.2,-0.2,0.1
5.631,-0.3,-0.2,0.1
5.731,-0.4,-0.2,0.0
5.732,-0.5,-0.2,0.0
5.734,-0.5,-0.3,0.0
5.736,-0.5,-0.3,0.0
5.754,-0.5,-0.3,0.0
5.818,-0.6,-0.3,0.1
5.82,-0.7,-0.4,0.1
5.822,-0.7,-0.4,0.1
5.823,-0.7,-0.4,0.2
5.825,-0.6,-0.3,0.2
5.923,-0.6,-0.3,0.3
5.924,-0.5,-0.3,0.3
5.926,-0.5,-0.3,0.3
5.928,-0.4,-0.3,0.3
5.929,-0.4,-0.3,0.3
6.022,-0.4,-0.3,0.2
6.024,-0.4,-0.3,0.2
6.033,-0.4,-0.3,0.2
6.035,-0.5,-0.3,0.1
6.036,-0.5,-0.3,0.1
6.105,-0.4,-0.2,0.1
6.107,-0.3,-0.2,0.1
6.109,-0.2,-0.2,0.1
6.118,-0.2,-0.1,0.0
6.128,-0.2,-0.1,0.0
6.215,-0.1,-0.1,0.1
6.22,-0.0,-0.0,0.1
6.222,0.0,0.0,0.1
6.23,0.1,0.0,0.1
6.325,0.2,-0.0,0.1
6.329,0.2,-0.0,0.1
6.331,0.1,0.0,0.1
6.333,0.0,0.0,0.1
6.334,-0.0,0.0,0.0
6.336,-0.0,0.0,0.0
6.423,0.1,-0.0,-0.0
6.427,0.2,-0.1,-0.1
6.429,0.3,-0.2,-0.1
6.431,0.1,-0.2,-0.2
6.433,-0.2,-0.2,-0.2
6.539,-0.3,-0.1,-0.2
6.541,-0.1,-0.1,-0.2
6.55,0.1,-0.0,-0.1
6.552,0.2,0.0,-0.1
6.553,0.3,0.1,-0.0
6.626,0.3,0.1,-0.0
6.628,0.2,0.1,-0.0
6.63,0.2,0.1,-0.1
6.631,0.2,0.1,-0.1
6.633,0.1,0.1,-0.2
6.722,0.0,0.1,-0.2
6.724,0.0,0.1,-0.2
6.725,0.1,0.1,-0.2
6.727,0.1,0.2,-0.2
6.822,0.1,0.2,-0.2
6.824,0.1,0.2,-0.2
6.829,0.1,0.2,-0.2
6.831,0.1,0.2,-0.1
6.837,0.1,0.2,-0.1
6.938,0.1,0.1,-0.1
6.94,0.1,0.1,-0.1
6.95,0.1,0.1,-0.1
6.958,0.0,0.1,-0.1
6.96,0.0,0.1,-0.0
7.027,0.1,0.1,0.0
7.03,0.1,0.1,0.1
7.035,0.1,0.1,0.1
7.037,0.1,0.1,0.1
7.038,0.1,0.1,0.1
7.122,0.1,0.1,0.1
7.123,0.1,0.1,0.1
7.125,0.1,0.0,0.0
7.128,0.1,0.0,0.0
7.134,0.0,0.0,0.0
7.23,0.0,-0.0,0.0
7.237,0.0,-0.0,0.0
7.238,-0.0,-0.0,-0.0
7.24,-0.0,-0.0,-0.0
7.242,-0.0,-0.0,-0.0
7.323,-0.0,0.0,-0.0
7.333,-0.0,0.0,0.0
7.335,-0.0,0.0,0.0
7.336,-0.0,0.0,0.0
7.338,-0.0,0.0,0.0
7.418,0.0,0.1,0.0
7.42,0.1,0.1,0.0
7.421,0.1,0.1,0.0
7.427,0.1,0.0,-0.0
7.429,0.2,0.0,-0.0
7.519,0.2,0.0,-0.0
7.521,0.2,0.0,-0.1
7.525,0.3,0.1,-0.1
7.527,0.3,0.1,-0.2
7.529,0.2,0.1,-0.2
7.627,0.2,0.0,-0.2
7.628,0.2,0.0,-0.2
7.639,0.2,-0.0,-0.2
7.641,0.2,-0.0,-0.2
7.642,0.1,-0.0,-0.2
7.718,0.1,-0.1,-0.2
7.723,0.2,-0.1,-0.1
7.727,0.3,-0.1,-0.1
7.728,0.3,-0.2,-0.1
7.731,0.1,-0.2,-0.1
7.828,-0.0,-0.2,-0.1
7.83,-0.1,-0.1,-0.2
7.832,-0.0,-0.1,-0.3
7.834,0.1,-0.1,-0.3
7.836,0.2,0.0,-0.4
7.923,0.2,0.1,-0.4
7.924,0.1,0.1,-0.5
7.926,0.2,0.1,-0.5
7.928,0.2,0.1,-0.5
7.929,0.2,0.1,-0.5
8.052,0.1,-0.0,-0.5
8.054,-0.1,-0.1,-0.6
8.056,-0.2,-0.1,-0.5
8.063,-0.2,-0.1,-0.4
8.073,-0.2,-0.2,-0.4
8.138,-0.2,-0.2,-0.3
8.14,-0.2,-0.2,-0.2
8.141,-0.2,-0.1,-0.1
8.143,-0.2,-0.0,-0.1
8.144,-0.1,0.0,-0.0
8.2,0.1,0.1,-0.0
8.202,0.2,0.2,0.0
8.203,0.3,0.2,0.0
8.205,0.3,0.2,0.1
8.209,0.3,0.2,0.1
8.314,0.3,0.2,0.1
8.316,0.2,0.2,0.1
8.318,0.2,0.2,0.1
8.439,0.2,0.2,0.0
8.442,0.2,0.2,0.0
8.448,0.3,0.2,-0.0
8.45,0.3,0.2,-0.1
8.453,0.2,0.1,-0.1
8.463,0.2,0.1,-0.1
8.518,0.1,0.0,-0.1
8.519,-0.0,-0.0,-0.1
8.528,-0.1,-0.0,-0.1
8.529,-0.2,-0.0,-0.1
8.531,-0.3,-0.0,-0.1
8.618,-0.2,-0.0,-0.0
8.619,-0.2,-0.0,0.0
8.621,-0.2,-0.0,0.0
8.622,-0.3,-0.0,0.1
8.624,-0.3,-0.0,0.1
8.722,-0.3,-0.0,0.1
8.723,-0.3,0.0,0.2
8.725,-0.4,0.1,0.2
8.727,-0.4,0.2,0.3
8.728,-0.3,0.3,0.4
8.839,-0.1,0.4,0.3
8.841,0.0,0.5,0.3
8.842,0.1,0.5,0.2
8.857,0.2,0.4,0.1
8.858,0.2,0.3,-0.0
8.924,0.3,0.2,-0.0
8.928,0.3,0.1,-0.1
8.93,0.3,0.1,-0.1
8.932,0.3,0.1,-0.2
8.933,0.4,0.1,-0.2
9.044,0.5,0.1,-0.3
9.045,0.4,0.1,-0.4
9.047,0.2,0.1,-0.4
9.048,0.1,0.1,-0.4
9.05,0.2,0.1,-0.4
9.13,0.3,0.1,-0.4
9.131,0.3,0.0,-0.3
9.133,0.3,0.0,-0.3
9.134,0.1,-0.0,-0.2
9.136,0.1,-0.1,-0.2
9.228,0.0,-0.1,-0.1
9.23,0.0,-0.1,-0.1
9.247,0.1,-0.1,-0.0
9.248,0.1,-0.0,0.0
9.25,0.1,0.0,0.1
9.326,0.1,0.1,0.1
9.331,0.1,0.2,0.2
9.333,0.2,0.2,0.2
9.334,0.2,0.3,0.3
9.336,0.2,0.3,0.3
9.421,0.3,0.3,0.3
9.423,0.3,0.3,0.2
9.424,0.2,0.3,0.2
9.431,0.1,0.3,0.2
9.433,0.0,0.2,0.2
9.518,0.0,0.2,0.3
9.519,-0.0,0.1,0.3
9.521,-0.1,0.1,0.4
9.522,-0.3,0.1,0.4
9.524,-0.3,0.0,0.5
9.631,-0.3,0.1,0.5
9.641,-0.3,0.1,0.6
9.643,-0.2,0.2,0.7
9.645,-0.1,0.2,0.7
9.648,0.1,0.4,0.6
9.718,0.2,0.5,0.6
9.727,0.3,0.5,0.5
9.731,0.2,0.5,0.4
9.732,0.1,0.5,0.3
9.734,0.0,0.4,0.2
9.817,-0.1,0.3,0.2
9.819,-0.1,0.2,0.2
9.821,-0.3,0.0,0.2
9.822,-0.4,-0.1,0.2
9.824,-0.6,-0.2,0.1
9.926,-0.6,-0.3,0.0
9.928,-0.6,-0.3,-0.0
9.929,-0.6,-0.2,-0.1
9.931,-0.7,-0.1,-0.1
9.933,-0.6,-0.0,-0.1
10.046,-0.4,0.1,-0.0
10.048,-0.3,0.1,0.0
10.049,-0.2,0.2,0.1
10.054,-0.0,0.2,0.1
10.123,0.1,0.3,0.1
10.125,0.1,0.3,0.0
10.127,0.1,0.2,0.0
10.128,0.2,0.2,0.0
10.13,0.2,0.2,0.1
10.222,0.3,0.2,0.1
10.224,0.3,0.2,0.0
10.227,0.4,0.2,-0.0
10.229,0.3,0.2,-0.1
10.231,0.2,0.2,-0.1
10.33,0.1,0.2,-0.1
10.332,0.2,0.2,-0.1
10.341,0.2,0.2,-0.1
10.343,0.2,0.2,-0.1
10.345,0.2,0.2,-0.1
10.423,0.2,0.2,-0.1
10.425,0.2,0.2,-0.1
10.426,0.3,0.1,-0.1
10.428,0.3,0.1,-0.2
10.429,0.3,0.0,-0.2
10.524,0.2,-0.1,-0.2
10.526,0.1,-0.2,-0.2
10.528,0.0,-0.2,-0.1
10.529,0.0,-0.3,-0.1
10.534,0.1,-0.3,0.1
10.618,0.2,-0.3,0.1
10.62,0.3,-0.2,0.2
10.621,0.4,-0.0,0.2
10.623,0.5,0.1,0.1
10.626,0.5,0.2,0.1
10.734,0.6,0.3,0.1
10.735,0.7,0.4,0.1
10.737,0.7,0.3,0.1
10.738,0.7,0.3,0.0
10.748,0.7,0.2,-0.0
10.815,0.5,0.2,-0.1
10.816,0.3,0.2,-0.1
10.818,0.2,0.1,-0.1
10.82,0.1,0.1,-0.0
10.821,0.1,0.1,0.0
10.922,0.1,0.1,0.1
10.924,0.1,0.1,0.2
10.925,0.2,0.1,0.2
10.927,0.3,0.1,0.2
10.928,0.3,0.0,0.2
11.035,0.2,0.0,0.1
11.037,0.1,-0.1,0.1
11.038,0.1,-0.2,0.0
11.04,0.1,-0.3,-0.1
11.041,0.0,-0.4,-0.1
11.142,-0.2,-0.5,-0.2
11.143,-0.5,-0.5,-0.2
11.145,-0.6,-0.5,-0.2
11.158,-0.5,-0.6,-0.2
11.16,-0.5,-0.5,-0.1
11.22,-0.4,-0.5,0.0
11.222,-0.3,-0.5,0.0
11.223,-0.3,-0.5,0.0
11.225,-0.3,-0.5,-0.0
11.227,-0.3,-0.5,-0.0
11.322,-0.3,-0.5,-0.0
11.323,-0.3,-0.5,-0.0
11.325,-0.3,-0.5,-0.0
11.326,-0.3,-0.5,-0.1
11.328,-0.3,-0.5,-0.1
11.417,-0.4,-0.5,-0.1
11.419,-0.3,-0.5,-0.1
11.42,-0.3,-0.5,-0.1
11.423,-0.3,-0.5,-0.1
11.425,-0.4,-0.5,-0.0
11.53,-0.5,-0.5,-0.0
11.532,-0.4,-0.4,-0.0
11.544,-0.4,-0.3,-0.0
11.546,-0.3,-0.3,-0.0
11.548,-0.2,-0.2,-0.1
11.619,-0.1,-0.1,-0.1
11.621,0.0,-0.1,-0.1
11.623,0.1,-0.0,-0.0
11.624,0.1,-0.0,-0.0
11.725,0.1,-0.0,-0.1
11.727,0.0,-0.0,-0.1
11.728,-0.0,-0.1,-0.0
11.73,-0.0,-0.1,-0.0
11.731,-0.0,-0.1,0.0
11.817,-0.1,-0.0,0.0
11.819,-0.1,-0.0,0.0
11.82,-0.1,0.0,0.1
11.822,-0.0,0.0,0.1
11.824,-0.0,0.1,0.1
11.958,-0.1,0.1,0.0
11.961,-0.1,0.0,0.0
11.97,-0.1,0.0,-0.0
11.972,-0.1,0.0,-0.1
11.974,-0.1,0.0,-0.1
12.036,-0.1,0.0,-0.1
12.037,-0.0,-0.0,-0.1
12.039,-0.0,-0.0,-0.1
12.04,-0.1,-0.0,-0.2
12.042,-0.2,0.0,-0.2
12.044,-0.2,0.1,-0.2
12.116,-0.2,0.2,-0.2
12.117,0.0,0.3,-0.2
12.119,0.2,0.3,-0.2
12.12,0.3,0.3,-0.3
12.232,0.2,0.3,-0.4
12.234,0.1,0.2,-0.5
12.236,0.0,0.1,-0.5
12.237,-0.1,0.1,-0.5
12.239,-0.2,0.0,-0.5
12.317,-0.2,-0.0,-0.5
12.327,-0.2,0.0,-0.4
12.328,-0.1,0.0,-0.3
12.33,0.0,0.1,-0.2
12.331,0.1,0.1,-0.1
12.424,0.1,0.1,-0.1
12.425,-0.0,0.1,-0.0
12.427,-0.0,0.1,0.0
12.432,0.1,0.2,0.1
12.433,0.3,0.3,0.2
12.515,0.4,0.3,0.2
12.516,0.4,0.2,0.2
12.518,0.3,0.2,0.3
12.519,0.2,0.1,0.3
12.521,0.1,0.0,0.4
12.63,0.1,-0.0,0.4
12.631,0.0,-0.1,0.5
12.633,0.0,-0.1,0.6
12.635,0.1,-0.1,0.6
12.636,0.1,-0.1,0.7
12.717,0.1,-0.1,0.7
12.722,-0.0,-0.0,0.7
12.724,-0.1,0.1,0.7
12.727,0.1,0.2,0.7
12.73,0.2,0.3,0.7
12.82,0.4,0.3,0.6
12.822,0.4,0.4,0.4
12.823,0.3,0.4,0.3
12.827,0.1,0.4,0.2
12.829,-0.0,0.4,0.1
12.917,-0.1,0.3,0.0
12.918,-0.1,0.2,-0.0
12.924,-0.1,0.1,-0.0
12.926,-0.2,0.0,-0.1
12.927,-0.3,-0.0,-0.2
13.028,-0.3,-0.0,-0.3
13.03,-0.2,-0.0,-0.3
13.041,-0.2,-0.1,-0.4
13.043,-0.2,-0.1,-0.4
13.054,-0.2,-0.1,-0.4
13.134,-0.3,-0.1,-0.3
13.136,-0.3,-0.1,-0.2
13.137,-0.2,-0.1,-0.2
13.139,-0.1,-0.1,-0.1
13.144,-0.0,-0.1,-0.1
13.221,-0.1,-0.0,-0.0
13.223,-0.1,0.0,0.0
13.225,-0.2,0.1,0.1
13.226,-0.1,0.1,0.1
13.228,0.1,0.1,0.1
13.322,0.1,0.1,0.0
13.323,0.1,0.1,0.0
13.325,0.1,0.1,-0.0
13.326,0.0,0.1,-0.0
13.431,-0.0,0.1,-0.0
13.433,-0.0,0.1,-0.0
13.434,0.0,0.1,-0.1
13.436,0.1,0.1,-0.1
13.45,0.0,0.1,-0.1
13.52,-0.1,0.1,-0.1
13.521,-0.0,0.1,-0.1
13.523,0.0,0.1,-0.1
13.525,0.0,0.1,-0.1
13.526,-0.0,0.1,-0.1
13.616,-0.1,0.1,-0.1
13.618,-0.1,0.0,-0.0
13.619,-0.1,-0.0,-0.0
13.621,-0.0,-0.0,-0.0
13.622,-0.0,-0.0,-0.0
13.716,0.1,-0.0,0.0
13.718,0.2,0.0,0.0
13.719,0.3,0.0,0.1
13.721,0.3,0.1,0.1
13.729,0.4,0.1,0.1
13.832,0.4,0.2,0.1
13.833,0.5,0.2,0.0
13.835,0.6,0.3,-0.1
13.848,0.6,0.3,-0.1
13.85,0.7,0.3,-0.2
13.916,0.7,0.2,-0.3
13.918,0.6,0.1,-0.4
13.919,0.4,0.0,-0.4
13.921,0.3,-0.1,-0.5
13.922,0.1,-0.1,-0.5
14.025,0.1,-0.1,-0.5
14.027,0.1,-0.2,-0.4
14.029,0.2,-0.2,-0.3
14.033,0.1,-0.1,-0.2
14.035,0.1,-0.0,-0.1
14.125,0.1,0.0,0.1
14.126,0.1,0.1,0.2
14.128,0.1,0.2,0.3
14.13,0.1,0.3,0.4
14.131,0.1,0.3,0.5
14.226,0.1,0.4,0.5
14.228,0.2,0.4,0.5
14.242,0.2,0.4,0.5
14.245,0.1,0.3,0.5
14.247,0.0,0.2,0.4
14.324,-0.0,0.1,0.4
14.326,-0.1,-0.0,0.4
14.328,-0.3,-0.1,0.3
14.331,-0.3,-0.2,0.2
14.332,-0.2,-0.3,0.1
14.42,-0.2,-0.4,0.1
14.422,-0.4,-0.4,0.1
14.424,-0.6,-0.4,0.0
14.426,-0.7,-0.4,0.0
14.427,-0.6,-0.4,0.0
14.522,-0.4,-0.4,0.1
14.524,-0.3,-0.4,0.2
14.526,-0.4,-0.4,0.2
14.527,-0.5,-0.3,0.2
14.529,-0.5,-0.3,0.1
14.637,-0.4,-0.3,0.1
14.647,-0.3,-0.3,0.0
14.653,-0.3,-0.3,-0.1
14.654,-0.2,-0.2,-0.1
14.656,-0.2,-0.2,-0.2
14.72,-0.1,-0.2,-0.2
14.721,-0.0,-0.2,-0.2
14.723,0.0,-0.2,-0.2
14.725,0.0,-0.2,-0.1
14.726,-0.0,-0.3,-0.1
14.817,-0.1,-0.3,-0.1
14.818,-0.1,-0.2,-0.1
14.82,-0.1,-0.2,-0.0
14.831,-0.0,-0.2,0.0
14.834,-0.0,-0.1,0.1
14.932,0.0,-0.1,0.1
14.934,0.0,-0.0,0.2
14.936,0.0,0.0,0.1
14.937,0.1,0.1,0.1
15.02,0.1,0.1,0.1
15.03,0.1,0.2,0.1
15.031,0.1,0.2,0.1
15.033,0.1,0.2,0.1
15.041,0.1,0.2,0.1
15.12,0.1,0.2,0.1
15.125,0.1,0.2,0.0
15.126,0.2,0.2,0.0
15.128,0.2,0.2,-0.0
15.129,0.2,0.1,-0.0
15.216,0.1,0.1,-0.1
15.218,0.0,0.0,-0.1
15.224,-0.0,0.0,-0.2
15.225,-0.1,0.0,-0.2
15.227,-0.0,0.0,-0.2
15.325,0.0,0.1,-0.1
15.326,0.1,0.1,-0.1
15.336,0.1,0.1,-0.0
15.337,0.1,0.2,0.0
15.339,0.1,0.3,0.1
15.421,0.1,0.3,0.1
15.423,0.1,0.3,0.2
15.424,0.1,0.3,0.2
15.426,0.1,0.2,0.2
15.431,0.0,0.2,0.3
15.523,0.0,0.1,0.3
15.526,0.0,0.1,0.3
15.528,0.0,0.0,0.2
15.529,0.0,-0.1,0.2
15.531,-0.1,-0.2,0.2
15.621,-0.2,-0.2,0.2
15.623,-0.3,-0.2,0.2
15.624,-0.2,-0.3,0.3
15.626,-0.2,-0.2,0.3
15.628,-0.2,-0.2,0.3
15.729,-0.1,-0.1,0.3
15.731,-0.0,0.1,0.3
15.732,-0.0,0.2,0.2
15.734,0.0,0.3,0.1
15.743,0.2,0.4,0.1
15.82,0.3,0.4,0.0
15.821,0.3,0.4,-0.0
15.823,0.2,0.4,-0.0
15.825,0.1,0.3,-0.1
15.826,0.1,0.3,-0.2
15.926,0.1,0.2,-0.2
15.928,0.0,0.2,-0.3
15.929,-0.1,0.2,-0.3
15.934,-0.1,0.2,-0.4
15.937,0.1,0.2,-0.3
16.029,0.1,0.2,-0.3
16.031,0.2,0.2,-0.3
16.033,0.2,0.2,-0.3
16.034,0.2,0.2,-0.3
16.036,0.1,0.2,-0.3
16.132,0.1,0.1,-0.3
16.134,0.1,0.1,-0.3
16.135,0.1,0.1,-0.3
16.145,0.1,0.1,-0.3
16.146,0.0,0.0,-0.3
16.22,-0.0,0.0,-0.3
16.222,-0.0,0.0,-0.2
16.224,0.0,0.0,-0.2
16.226,0.1,0.0,-0.2
16.234,0.1,-0.0,-0.2
16.316,0.0,-0.0,-0.2
16.317,-0.0,-0.0,-0.1
16.319,0.1,-0.0,-0.1
16.32,0.1,-0.1,-0.1
16.322,0.1,-0.1,-0.1
16.415,-0.0,-0.0,-0.1
16.417,-0.3,-0.0,-0.1
16.419,-0.4,0.0,-0.1
16.42,-0.5,0.1,-0.2
16.426,-0.3,0.1,-0.3
16.53,0.1,0.2,-0.3
16.532,0.4,0.3,-0.4
16.541,0.5,0.4,-0.4
16.543,0.4,0.5,-0.4
16.544,0.3,0.5,-0.4
16.625,0.3,0.6,-0.4
16.627,0.4,0.6,-0.3
16.628,0.6,0.6,-0.3
16.63,0.7,0.5,-0.3
16.72,0.7,0.4,-0.4
16.722,0.7,0.3,-0.4
16.725,0.5,0.3,-0.3
16.729,0.3,0.2,-0.3
16.73,0.2,0.2,-0.3
16.822,0.1,0.2,-0.2
16.823,0.2,0.3,-0.1
16.825,0.3,0.3,0.0
16.826,0.3,0.3,0.1
16.828,0.2,0.4,0.1
16.932,0.1,0.5,0.2
16.937,0.1,0.6,0.2
16.951,0.2,0.6,0.2
16.957,0.3,0.7,0.2
16.959,0.3,0.8,0.2
17.023,0.3,0.8,0.2
17.025,0.3,0.8,0.2
17.026,0.4,0.8,0.1
17.031,0.4,0.8,0.1
17.036,0.4,0.8,0.0
17.119,0.5,0.8,-0.0
17.122,0.5,0.8,-0.1
17.124,0.6,0.8,-0.2
17.125,0.6,0.8,-0.3
17.127,0.6,0.8,-0.3
17.231,0.7,0.7,-0.4
17.233,0.7,0.7,-0.5
17.235,0.7,0.7,-0.5
17.24,0.6,0.6,-0.6
17.241,0.6,0.6,-0.6
17.319,0.6,0.5,-0.6
17.329,0.6,0.5,-0.6
17.337,0.6,0.4,-0.5
17.338,0.5,0.5,-0.5
17.34,0.5,0.5,-0.4
17.416,0.5,0.5,-0.4
17.418,0.6,0.5,-0.3
17.42,0.6,0.5,-0.3
17.421,0.6,0.6,-0.3
17.423,0.6,0.6,-0.3
17.524,0.6,0.7,-0.3
17.526,0.7,0.7,-0.3
17.528,0.7,0.8,-0.3
17.53,0.6,0.9,-0.3
17.531,0.6,0.9,-0.3
17.63,0.6,0.9,-0.3
17.632,0.6,1.0,-0.3
17.633,0.7,1.0,-0.3
17.635,0.7,1.0,-0.3
17.636,0.6,1.0,-0.3
17.719,0.5,1.1,-0.3
17.721,0.4,1.1,-0.3
17.724,0.4,1.1,-0.3
17.726,0.4,1.1,-0.3
17.733,0.5,1.2,-0.3
17.823,0.6,1.2,-0.3
17.824,0.6,1.2,-0.3
17.826,0.7,1.2,-0.3
17.828,0.6,1.3,-0.3
17.829,0.6,1.2,-0.3
17.916,0.7,1.3,-0.3
17.922,0.9,1.4,-0.2
17.927,0.9,1.5,-0.2
17.929,1.0,1.7,-0.1
17.931,1.2,1.6,-0.2
18.032,1.2,1.6,-0.1
18.034,0.9,1.6,-0.1
18.035,0.5,1.6,-0.2
18.037,0.5,1.5,-0.1
18.05,0.6,1.5,-0.1
18.119,0.7,1.4,-0.1
18.12,0.8,1.4,-0.1
18.122,0.7,1.3,-0.1
18.124,0.6,1.3,-0.1
18.126,0.5,1.4,-0.1
18.219,0.6,1.4,-0.2
18.22,0.7,1.5,-0.1
18.222,0.7,1.6,-0.1
18.224,0.4,1.5,0.1
18.325,0.4,1.3,0.1
18.326,0.7,1.3,-0.2
18.328,0.6,1.4,-0.2
18.329,0.1,1.3,-0.3
18.331,0.2,0.9,-0.2
18.424,0.3,1.2,-0.2
18.434,0.5,1.0,0.1
18.436,0.3,1.1,0.2
18.437,-0.1,1.0,0.2
18.447,-0.3,1.0,0.3
18.515,-0.3,1.0,0.3
18.517,-0.0,0.9,0.2
18.519,0.1,0.9,0.2
18.52,0.2,0.8,0.3
18.522,0.2,0.8,0.2
18.619,0.3,0.7,0.1
18.626,0.4,0.7,0.1
18.628,0.4,0.6,-0.0
18.629,0.4,0.6,-0.1
18.631,0.2,0.6,-0.1
18.715,0.1,0.5,-0.1
18.717,0.0,0.5,-0.1
18.724,-0.1,0.6,-0.2
18.726,-0.1,0.5,-0.2
18.727,-0.2,0.5,-0.2
18.823,-0.1,0.5,-0.2
18.825,0.0,0.4,-0.2
18.834,0.2,0.4,-0.3
18.843,0.3,0.4,-0.3
18.845,0.4,0.3,-0.3
18.921,0.5,0.3,-0.3
18.923,0.5,0.3,-0.4
18.924,0.5,0.2,-0.4
18.929,0.5,0.2,-0.3
18.931,0.4,0.1,-0.3
19.025,0.3,0.1,-0.3
19.027,0.0,0.1,-0.3
19.029,-0.1,0.2,-0.4
19.031,0.1,0.2,-0.5
19.033,0.3,0.3,-0.7
19.117,0.6,0.3,-0.8
19.118,0.9,0.4,-0.8
19.12,1.1,0.3,-0.9
19.123,1.1,0.3,-0.9
19.126,1.2,0.4,-0.9
19.233,1.1,0.4,-0.9
19.235,1.0,0.3,-0.8
19.245,1.0,0.3,-0.8
19.246,0.8,0.3,-0.6
19.257,0.7,0.3,-0.5
19.321,0.8,0.3,-0.4
19.323,0.8,0.3,-0.3
19.325,0.8,0.2,-0.3
19.326,0.9,0.2,-0.1
19.331,0.8,0.3,-0.1
19.415,0.7,0.3,-0.1
19.417,0.8,0.3,-0.0
19.418,0.8,0.4,-0.0
19.42,0.7,0.4,0.1
19.422,0.4,0.4,0.1
19.515,0.2,0.5,0.1
19.519,0.2,0.4,0.1
19.521,0.2,0.4,0.1
19.527,0.2,0.3,0.1
19.528,0.2,0.3,0.2
19.632,0.3,0.2,0.1
19.646,0.3,0.1,-0.0
19.648,0.3,0.1,0.0
19.649,0.1,0.1,0.1
19.651,-0.1,0.2,0.0
19.722,-0.2,0.2,0.0
19.724,-0.1,0.2,-0.0
19.726,0.1,0.2,-0.0
19.728,0.2,0.2,-0.0
19.73,0.1,0.2,0.0
19.82,0.1,0.2,-0.0
19.824,0.1,0.2,-0.1
19.83,0.2,0.2,-0.1
19.832,0.3,0.2,-0.0
19.833,0.2,0.3,0.0
19.93,0.2,0.3,0.1
19.931,0.1,0.2,0.1
19.938,0.1,0.2,0.1
19.94,0.2,0.3,0.2
20.025,0.3,0.3,0.3
20.052,0.4,0.3,0.4
20.053,0.4,0.3,0.5
20.055,0.4,0.3,0.5
20.057,0.4,0.3,0.5
20.121,0.4,0.3,0.5
20.123,0.4,0.4,0.5
20.125,0.1,0.2,0.5
20.126,-0.2,0.1,0.3
20.128,-0.4,0.1,0.3
20.219,-0.9,0.1,0.3
20.221,-0.8,-0.0,0.3
20.223,0.0,-0.1,0.4
20.224,0.3,-0.0,0.6
20.226,0.3,0.1,0.6
20.328,0.5,0.1,0.5
20.33,0.7,0.2,0.6
20.331,0.7,0.2,0.7
20.333,0.5,0.2,0.8
20.336,0.3,0.2,0.8
20.422,0.1,0.1,0.8
20.424,0.0,0.1,0.6
20.425,0.1,0.1,0.5
20.43,0.2,0.1,0.3
20.432,0.3,0.1,0.4
20.519,0.1,-0.0,0.3
20.526,-0.1,-0.1,0.4
20.528,-0.3,0.0,0.6
20.53,-0.0,0.0,0.6
20.531,0.2,0.1,0.7
20.62,0.3,0.1,0.7
20.622,0.4,0.2,0.8
20.625,0.5,0.2,0.8
20.626,0.6,0.3,0.8
20.628,0.7,0.3,0.7
20.726,0.7,0.2,0.6
20.727,0.6,0.2,0.7
20.729,0.3,0.2,0.7
20.73,0.3,0.1,0.7
20.741,0.3,0.0,0.6
20.825,0.2,0.0,0.6
20.827,0.0,0.0,0.5
20.829,0.1,-0.0,0.5
20.83,-0.1,-0.0,0.6
20.832,-0.4,-0.1,0.5
20.918,-0.4,-0.1,0.2
20.923,0.2,-0.0,-0.2
20.925,0.9,0.1,-0.3
20.928,0.6,0.2,-0.2
20.93,0.1,0.1,-0.2
21.034,0.4,0.1,-0.1
21.04,0.8,0.1,-0.2
21.041,0.8,0.1,-0.0
21.045,0.6,0.1,0.0
21.047,0.6,0.1,0.1
21.131,0.6,0.2,0.1
21.132,0.4,0.2,0.1
21.134,0.0,0.3,0.1
21.143,-0.1,0.3,0.1
21.145,0.0,0.3,0.1
21.215,0.2,0.3,-0.0
21.22,0.1,0.2,-0.1
21.221,-0.0,0.0,-0.2
21.223,-0.2,-0.0,-0.3
21.224,-0.3,-0.0,-0.2
21.321,-0.3,0.1,-0.0
21.323,-0.0,0.2,0.1
21.325,0.1,0.2,0.1
21.326,0.0,0.2,0.1
21.328,-0.0,0.2,0.1
21.422,-0.1,0.1,-0.0
21.424,-0.1,-0.1,-0.2
21.425,-0.3,-0.1,-0.1
21.427,-0.2,-0.1,-0.1
21.428,0.0,-0.1,0.0
21.525,0.2,-0.1,-0.0
21.527,0.1,0.0,-0.1
21.545,0.2,0.1,-0.3
21.548,0.2,0.1,-0.3
21.549,0.2,0.1,-0.4
21.621,0.3,0.0,-0.3
21.626,-0.0,0.0,-0.2
21.628,0.2,0.0,-0.0
21.629,0.4,-0.1,0.1
21.722,0.2,-0.2,-0.3
21.723,0.5,-0.1,-0.3
21.725,0.2,0.0,-0.5
21.727,-0.1,0.0,-0.6
21.728,0.0,0.0,-0.7
21.818,0.3,0.2,-0.5
21.82,0.4,0.3,-0.5
21.821,0.4,0.5,-0.4
21.829,0.4,0.4,-0.5
21.831,0.2,0.3,-0.6
21.928,0.1,0.1,-0.7
21.929,0.2,-0.2,-0.6
21.939,-0.0,-0.1,-0.6
21.941,-0.0,0.0,-0.5
21.942,0.1,0.1,-0.5
22.038,0.2,0.1,-0.4
22.04,0.2,0.1,-0.3
22.042,0.2,0.1,-0.3
22.044,0.2,0.1,-0.2
22.047,0.0,0.0,-0.2
22.121,0.0,0.1,-0.1
22.123,0.0,0.1,-0.1
22.127,0.0,0.2,-0.1
22.129,-0.0,0.2,-0.2
22.131,0.0,0.1,-0.1
22.228,-0.1,0.0,-0.2
22.229,0.0,-0.0,-0.2
22.231,0.0,-0.0,-0.1
22.232,0.0,-0.1,-0.1
22.234,0.0,-0.1,-0.1
22.324,0.1,-0.0,-0.1
22.335,0.1,-0.0,-0.1
22.337,-0.0,-0.1,-0.3
22.338,0.1,-0.2,-0.4
22.34,0.1,-0.2,-0.5
22.418,0.1,-0.2,-0.5
22.42,-0.1,-0.2,-0.4
22.422,-0.1,-0.1,-0.2
22.423,-0.2,0.0,-0.1
22.428,-0.2,0.1,0.1
22.519,-0.0,0.2,0.1
22.521,0.1,0.1,0.1
22.522,0.1,0.1,-0.0
22.524,0.1,0.1,-0.0
22.526,0.1,0.0,-0.0
22.627,0.1,-0.0,-0.0
22.628,0.1,-0.0,0.0
22.63,0.0,-0.0,0.1
22.637,0.0,-0.0,0.2
22.638,0.2,0.0,0.2
22.72,0.1,-0.1,0.2
22.721,-0.2,-0.3,0.4
22.723,-0.3,-0.3,0.2
22.725,0.0,-0.4,0.2
22.726,-0.2,-0.1,0.3
22.839,-0.2,0.1,0.4
22.844,-0.4,0.4,0.5
22.846,-0.3,0.4,0.6
22.848,-0.3,0.4,0.7
22.85,-0.5,0.2,0.5
22.922,-0.2,-0.0,0.3
22.923,-0.1,-0.1,0.3
22.925,-0.2,-0.0,0.3
22.927,-0.2,0.0,0.3
22.928,-0.2,0.0,0.3
22.934,-0.1,0.0,0.4
23.023,-0.2,0.3,0.5
23.026,-0.2,0.5,0.6
23.035,-0.0,0.7,0.7
23.045,0.3,0.6,0.6
23.119,0.1,0.6,0.5
23.12,0.1,0.5,0.5
23.122,0.2,0.4,0.3
23.124,0.3,0.5,0.3
23.214,0.1,0.6,0.3
23.216,-0.1,0.5,-0.1
23.217,-0.2,0.3,-0.2
23.219,-0.3,0.2,-0.4
23.225,0.1,0.1,-0.2
23.314,-0.2,0.1,-0.1
23.318,-0.5,0.1,-0.0
23.32,-0.3,0.2,-0.1
23.328,-0.4,0.3,-0.3
23.33,-0.2,0.4,-0.2
23.436,0.2,0.4,-0.2
23.437,0.8,0.3,-0.1
23.439,1.0,0.3,0.1
23.44,0.6,0.4,0.1
23.451,0.5,0.4,-0.0
23.518,0.6,0.4,-0.0
23.523,0.5,0.4,0.0
23.525,0.4,0.6,0.1
23.526,0.5,0.6,0.0
23.528,0.8,0.6,0.1
23.619,1.0,0.5,0.2
23.62,0.9,0.4,0.4
23.622,0.2,0.4,0.4
23.624,-1.4,0.3,0.1
23.625,-2.2,0.1,-0.1
23.722,-1.6,0.0,0.2
23.723,-0.7,0.2,0.5
23.725,0.3,0.2,0.5
23.726,0.2,0.1,0.3
23.728,-0.4,-0.1,0.1
23.83,-0.8,-0.2,-0.0
23.832,-0.6,-0.0,0.1
23.833,0.4,0.2,0.3
23.851,1.5,0.3,0.4
23.852,0.2,0.4,0.0
23.918,-1.2,0.1,-0.3
23.923,-0.6,0.1,-0.3
23.924,0.1,0.2,-0.1
23.926,-0.3,0.0,-0.1
23.927,-0.6,-0.1,-0.4
24.015,-0.2,-0.1,-0.4
24.017,-0.1,-0.1,-0.3
24.019,-0.1,-0.3,-0.2
24.02,-0.3,-0.2,-0.3
24.028,-0.2,-0.1,-0.1
24.116,-0.2,0.1,-0.0
24.132,-0.1,0.1,0.1
24.133,-0.1,0.2,0.1
24.135,-0.2,0.2,0.0
24.136,-0.1,0.2,0.1
24.235,-0.0,0.2,0.2
24.236,-0.0,0.1,0.2
24.246,0.1,0.1,0.3
24.248,0.2,0.1,0.3
24.25,0.3,0.1,0.3
24.314,0.4,0.1,0.2
24.316,0.4,0.0,0.4
24.327,0.2,0.1,0.3
24.329,0.2,-0.0,0.3
24.33,0.2,-0.2,0.2
24.423,0.1,-0.3,0.3
24.425,-0.0,-0.4,0.3
24.426,-0.3,-0.3,0.2
24.428,-0.3,-0.3,0.3
24.43,-0.3,-0.3,0.5
24.515,-0.2,-0.4,0.5
24.516,-0.1,-0.5,0.6
24.518,-0.2,-0.5,0.7
24.52,-0.2,-0.6,0.7
24.521,-0.2,-0.7,0.7
24.626,-0.2,-0.7,0.7
24.646,-0.2,-0.7,0.7
24.647,-0.1,-0.6,0.9
24.649,-0.1,-0.5,0.8
24.65,0.0,-0.4,0.9
24.72,0.1,-0.5,0.8
24.722,0.0,-0.6,0.7
24.723,-0.1,-0.5,0.6
24.725,-0.3,-0.5,0.6
24.73,-0.2,-0.4,0.6
24.818,0.0,-0.3,0.6
24.82,0.2,-0.2,0.6
24.821,0.4,-0.2,0.5
24.824,0.6,-0.3,0.1
24.93,0.3,-0.3,-0.6
24.932,0.4,-0.1,-0.6
24.934,0.3,-0.0,-0.4
24.936,0.1,-0.0,-0.6
24.939,-0.1,0.1,-0.6
25.025,-0.3,0.2,-0.7
25.038,-0.2,0.4,-0.6
25.046,0.3,0.4,-0.6
25.047,0.7,0.3,-0.5
25.049,0.8,0.2,-0.4
25.13,0.8,0.1,-0.4
25.131,0.7,0.0,-0.4
25.133,0.5,0.0,-0.5
25.135,0.2,0.0,-0.5
25.136,0.1,0.1,-0.5
25.218,0.0,0.1,-0.3
25.22,0.3,0.1,-0.1
25.222,0.3,-0.1,-0.2
25.223,0.3,-0.1,-0.2
25.225,0.4,-0.0,-0.1
25.328,0.5,-0.0,0.2
25.33,0.3,-0.2,0.2
25.331,-0.2,-0.2,0.1
25.335,-0.6,-0.0,0.1
25.337,-0.5,0.0,0.1
25.418,0.0,-0.1,0.1
25.419,0.2,-0.1,0.1
25.422,0.2,-0.1,0.2
25.424,0.2,-0.1,0.1
25.426,0.2,-0.2,0.1
25.518,0.2,-0.2,0.1
25.52,0.2,-0.2,0.1
25.522,0.0,-0.2,-0.0
25.523,-0.1,-0.2,-0.1
25.525,-0.1,-0.4,0.0
25.619,-0.2,-0.5,-0.1
25.621,-0.0,-0.5,-0.1
25.622,0.1,-0.4,-0.1
25.624,-0.6,-0.3,-0.2
25.626,-1.4,-0.2,-0.5
25.731,-0.9,-0.2,-0.4
25.733,0.1,-0.3,-0.3
25.734,0.2,-0.3,-0.3
25.736,0.1,-0.1,-0.2
25.747,0.2,-0.2,-0.2
25.818,0.1,-0.3,-0.2
25.819,-0.1,-0.5,-0.4
25.821,0.1,-0.7,-0.4
25.823,0.5,-1.0,-0.4
25.824,0.7,-0.9,-0.4
25.918,1.1,-0.6,-0.1
25.92,0.9,-0.3,-0.3
25.921,-0.0,0.0,-0.2
25.923,-0.4,0.4,0.0
25.925,-0.4,0.3,0.1
26.017,-0.3,0.1,-0.0
26.019,0.3,-0.2,0.1
26.02,0.8,-0.4,0.1
26.022,0.9,-0.4,-0.1
26.024,0.8,-0.4,-0.1
26.135,0.5,-0.2,-0.0
26.137,0.3,-0.2,0.1
26.146,0.4,-0.3,0.1
26.158,0.4,-0.5,0.0
26.159,-0.2,-0.1,-0.1
26.22,-0.5,-0.1,0.1
26.221,-0.3,-0.4,-0.0
26.226,-0.3,-0.1,-0.1
26.227,-0.6,0.1,0.1
26.229,-0.7,0.2,0.2
26.317,-0.8,0.2,0.4
26.318,-0.6,-0.0,0.4
26.32,-0.4,-0.1,0.2
26.325,-0.4,-0.3,0.2
26.326,-0.3,-0.2,0.2
26.413,-0.2,-0.1,0.3
26.417,-0.3,0.0,0.5
26.419,-0.2,0.2,0.6
26.42,-0.2,0.2,0.6
26.426,-0.2,0.1,0.5
26.525,-0.1,0.0,0.2
26.528,0.2,-0.3,-0.1
26.541,0.4,-0.4,-0.2
26.542,0.1,-0.3,-0.2
26.622,-0.1,-0.3,-0.1
26.623,0.1,-0.1,-0.2
26.625,0.0,0.2,-0.1
26.628,0.2,0.2,-0.0
26.63,0.2,0.2,-0.3
26.714,-0.0,0.4,-0.2
26.716,0.0,0.4,-0.1
26.722,0.4,0.5,-0.2
26.724,0.6,0.6,-0.1
26.726,0.5,0.7,-0.1
26.813,0.4,0.8,-0.0
26.815,0.2,0.9,0.1
26.817,0.1,0.9,-0.0
26.818,0.2,0.8,-0.3
26.82,0.7,0.8,-0.3
26.924,0.8,0.8,-0.3
26.925,0.5,0.8,0.1
26.936,-0.1,0.7,0.2
26.949,-0.8,0.7,0.2
26.95,-0.5,0.6,0.1
27.023,0.4,0.5,0.1
27.026,0.7,0.6,0.2
27.027,0.0,0.7,0.3
27.029,-0.4,0.7,0.1
27.03,-0.4,0.5,0.1
27.118,-0.3,0.2,-0.0
27.119,0.1,-0.1,-0.2
27.121,0.3,-0.2,-0.1
27.123,-0.0,-0.1,-0.2
27.125,-0.1,-0.1,-0.2
27.228,0.2,-0.2,-0.1
27.237,0.5,-0.3,-0.1
27.239,0.6,-0.2,-0.1
27.24,0.1,0.5,-0.0
27.242,-0.1,0.3,0.1
27.311,0.2,0.3,0.1
27.322,0.2,0.1,-0.0
27.323,-0.1,0.1,-0.1
27.325,-0.2,0.0,-0.0
27.327,-0.5,-0.0,-0.0
27.417,-1.2,0.0,-0.2
27.418,-1.1,0.0,-0.1
27.424,-0.7,-0.1,-0.1
27.426,-0.8,-0.0,-0.3
27.428,-0.9,0.1,-0.1
27.514,-0.8,0.2,-0.2
27.515,-0.3,-0.3,-0.2
27.517,-0.1,-0.2,-0.3
27.523,-1.1,0.0,-0.7
27.524,-0.3,-0.2,-0.5
27.629,0.1,-0.1,-0.1
27.631,-0.2,-0.3,-0.2
27.632,-0.1,0.0,-0.3
27.634,-0.1,0.0,-0.2
27.636,0.0,-0.0,-0.2
27.718,0.1,0.1,-0.2
27.72,0.0,0.1,-0.2
27.721,0.1,-0.0,-0.2
27.723,0.1,0.1,-0.1
27.724,0.3,0.1,-0.1
27.818,0.4,0.1,-0.0
27.819,0.3,0.2,0.1
27.821,0.2,0.3,-0.0
27.823,0.2,0.2,0.1
27.825,0.2,-0.0,0.0
27.92,0.1,-0.1,-0.4
27.921,0.3,-0.4,-0.0
27.923,0.2,-0.2,-0.1
27.925,0.1,-0.2,0.0
27.927,0.1,-0.1,0.1
28.033,0.3,-0.0,0.2
28.036,0.4,0.2,0.2
28.038,0.7,0.2,0.3
28.039,0.6,0.2,0.3
28.05,0.3,0.2,0.1
28.116,0.2,0.1,0.2
28.117,-0.0,-0.0,0.1
28.119,-0.1,-0.0,0.1
28.121,0.0,-0.2,0.0
28.228,0.2,-0.2,0.1
28.23,-0.2,-0.2,0.1
28.231,-0.2,-0.2,0.2
28.233,-0.1,-0.2,0.1
28.234,-0.1,-0.1,0.0
28.313,-0.1,-0.2,0.0
28.315,-0.0,-0.4,0.1
28.316,0.3,-0.8,0.1
28.318,0.4,-1.0,-0.1
28.319,0.3,-0.9,0.0
28.425,0.0,-0.8,-0.1
28.434,0.1,-0.6,0.1
28.435,-0.1,0.2,0.3
28.437,-0.1,0.8,0.6
28.448,-0.0,1.1,0.8
28.519,0.0,0.7,0.7
28.524,0.1,0.1,0.4
28.526,-0.4,-0.0,0.2
28.528,-0.6,-0.0,0.1
28.529,-0.2,-0.0,0.2
28.616,0.1,-0.1,0.2
28.618,0.1,-0.1,0.3
28.62,-0.1,0.0,0.5
28.624,0.1,-0.0,0.7
28.626,0.4,0.0,0.7
28.713,0.4,0.1,0.7
28.715,0.2,0.1,0.6
28.717,0.1,0.0,0.5
28.718,0.1,-0.1,0.5
28.724,0.0,-0.2,0.4
28.825,-0.0,-0.2,0.3
28.827,-0.0,-0.2,0.2
28.829,-0.1,-0.3,0.1
28.842,-0.3,-0.3,-0.0
28.851,-0.3,-0.2,0.0
28.926,-0.3,-0.2,0.0
28.928,-0.2,-0.1,-0.1
28.93,-0.1,-0.0,-0.0
28.931,-0.0,-0.0,-0.0
28.933,-0.1,0.0,-0.1
29.021,-0.2,0.1,0.1
29.023,0.0,0.0,0.0
29.024,0.0,0.0,-0.1
29.026,-0.0,0.0,-0.0
29.027,-0.1,0.0,-0.1
29.117,0.0,-0.0,-0.1
29.119,0.1,-0.0,-0.2
29.12,0.0,-0.0,-0.2
29.122,0.0,-0.1,-0.2
29.124,-0.0,-0.1,-0.2
29.231,0.0,-0.1,-0.3
29.233,0.3,-0.1,-0.4
29.244,0.3,-0.1,-0.4
29.25,0.1,-0.0,-0.5
29.252,0.1,-0.1,-0.5
29.317,0.1,-0.1,-0.6
29.319,0.0,-0.3,-0.6
29.321,0.1,-0.4,-0.6
29.323,0.7,-1.0,-0.4
29.324,0.6,-0.6,-0.7
29.421,0.4,-0.2,-0.5
29.422,0.5,-0.2,-0.4
29.424,0.3,-0.2,-0.4
29.426,0.1,-0.4,-0.6
29.427,0.1,-0.1,0.1
29.519,-0.4,0.4,-0.1
29.52,-0.8,0.2,-0.6
29.522,-1.7,0.4,-1.4
29.523,-1.5,0.2,-0.9
29.525,-0.8,0.2,-0.7
29.627,-0.6,0.0,-0.4
29.645,-0.6,0.1,-0.4
29.647,-0.5,0.0,-0.3
29.648,-0.4,0.1,-0.2
29.65,-0.3,0.0,-0.2
29.716,-0.1,0.1,-0.1
29.718,-0.1,0.1,-0.1
29.719,0.2,0.0,-0.0
29.721,0.3,-0.0,0.1
29.723,0.5,-0.1,0.2
29.818,0.7,-0.2,0.2
29.819,0.7,-0.2,0.2
29.821,0.6,-0.3,0.2
29.823,0.9,-0.4,0.2
29.927,1.4,-0.5,0.1
29.929,1.5,-0.6,-0.0
29.932,1.4,-0.5,0.1
29.934,1.3,-0.3,0.3
29.936,1.1,-0.2,0.6
30.021,0.5,-0.1,0.6
30.032,-1.5,0.0,0.7
30.034,-3.5,0.6,0.1
30.035,-2.5,0.5,0.3
30.037,-1.6,0.8,0.6
30.113,-0.7,0.5,0.7
30.114,-0.6,0.5,0.5
30.12,-0.4,0.2,0.5
30.122,-0.1,-0.0,0.5
30.124,-0.2,-0.0,0.6
30.212,-0.4,-0.1,0.6
30.214,-0.4,-0.0,0.5
30.216,-0.3,-0.0,0.5
30.217,-0.1,0.0,0.4
30.219,0.3,0.1,0.2
30.324,0.3,0.1,0.1
30.327,0.2,-0.0,0.1
30.336,0.3,-0.1,-0.2
30.337,0.3,-0.1,-0.3
30.339,0.3,0.1,-0.3
30.419,0.3,0.2,-0.2
30.421,0.2,0.3,-0.2
30.422,0.1,0.3,-0.1
30.424,-0.2,0.2,-0.1
30.425,-0.8,0.3,-0.1
30.519,-1.1,0.4,-0.1
30.521,-0.7,0.4,-0.2
30.522,-0.1,0.4,-0.0
30.527,-0.1,0.3,-0.1
30.529,-0.1,0.3,-0.1
30.611,-0.0,0.3,-0.1
30.612,0.2,0.3,0.0
30.614,0.4,0.3,0.1
30.616,0.3,0.2,0.2
30.617,-0.1,0.2,0.2
30.723,-0.0,0.1,0.2
30.725,0.1,0.1,0.2
30.727,0.2,-0.0,0.1
30.738,0.2,-0.1,0.1
30.75,-0.0,-0.3,0.1
30.818,-0.1,-0.3,0.0
30.82,-0.2,-0.3,0.1
30.821,-0.2,-0.4,0.0
30.823,-0.3,-0.5,-0.1
30.825,-0.3,-0.6,-0.1
30.918,-0.3,-0.5,-0.1
30.92,-0.1,-0.5,0.0
30.923,-0.1,-0.5,0.0
30.927,0.1,-0.5,0.3
30.929,0.0,-0.4,0.3
31.016,-0.1,-0.4,0.2
31.018,-0.1,-0.4,0.2
31.019,0.2,-0.5,0.3
31.025,0.3,-0.6,0.4
31.026,0.2,-0.5,0.4
31.123,0.0,-0.6,0.5
31.124,0.0,-0.6,0.6
31.126,-0.0,-0.6,0.7
31.144,-0.1,-0.6,0.8
31.146,0.1,-0.6,0.9
31.219,0.3,-0.7,1.0
31.221,0.1,-0.7,1.0
31.223,-0.0,-0.7,0.9
31.224,0.0,-0.8,1.0
31.229,-0.1,-1.0,1.0
31.32,-0.2,-1.0,0.9
31.321,-0.3,-0.9,0.9
31.323,-0.3,-0.7,0.9
31.325,-0.2,-0.5,1.0
31.326,-0.0,-0.5,1.0
31.416,0.3,-0.5,1.2
31.417,0.5,-0.6,1.2
31.419,0.6,-0.6,1.2
31.424,0.4,-0.6,0.9
31.533,0.2,-0.7,0.8
31.534,-0.1,-0.6,0.6
31.536,0.0,-0.7,0.9
31.557,-0.0,-0.6,0.8
31.558,-0.2,-0.7,0.4
31.616,-0.8,-0.7,0.3
31.618,-0.8,-0.4,0.4
31.619,-1.1,-0.3,0.4
31.621,-1.0,-0.3,0.3
31.622,-0.4,-0.4,0.2
31.716,-0.2,-0.4,0.3
31.718,-0.3,-0.3,0.2
31.72,-0.3,-0.3,0.3
31.721,-0.3,-0.3,0.2
31.723,-0.4,-0.4,0.0
31.812,-0.2,-0.4,0.1
31.814,-0.2,-0.4,-0.0
31.815,-0.3,-0.4,-0.1
31.817,-0.3,-0.5,-0.1
31.818,-0.3,-0.5,-0.2
31.931,-0.4,-0.5,-0.2
31.932,-0.4,-0.5,-0.3
31.943,-0.1,-0.4,-0.6
31.945,0.0,-0.2,-0.8
31.947,0.3,-0.1,-1.1
32.033,0.6,-0.2,-1.2
32.034,0.4,-0.5,-1.3
32.036,0.0,-0.6,-1.2
32.038,-0.4,-0.5,-0.9
32.039,-0.6,-0.3,-1.0
32.112,-0.1,-0.1,-1.0
32.114,0.4,-0.1,-1.1
32.115,0.8,-0.3,-1.2
32.117,1.9,-0.9,-1.3
32.119,2.9,-1.5,-0.7
32.226,2.3,-1.8,0.9
32.228,-1.0,-1.5,1.7
32.23,-3.0,-1.4,-1.0
32.231,-2.3,-0.8,-2.4
32.233,-1.7,-0.7,-0.6
32.315,0.1,-0.8,-0.5
32.327,0.3,-1.0,-0.4
32.329,-0.1,-0.9,0.1
32.331,-1.2,-0.8,-0.1
32.334,-1.2,-0.7,-0.3
32.418,-0.7,-0.7,-0.2
32.42,-0.2,-0.7,-0.1
32.421,-0.0,-0.8,-0.2
32.423,-0.1,-0.8,-0.2
32.424,-0.1,-0.9,-0.2
32.517,0.1,-1.0,-0.2
32.518,0.2,-1.0,-0.2
32.52,0.1,-1.0,-0.2
32.522,-0.1,-1.0,-0.2
32.523,0.0,-0.9,-0.1
32.626,0.0,-0.8,-0.1
32.628,-0.1,-0.8,-0.1
32.631,-0.2,-0.9,-0.1
32.633,-0.2,-0.9,-0.1
32.635,-0.2,-1.0,-0.1
32.716,-0.2,-0.9,-0.1
32.718,-0.2,-0.9,-0.1
32.719,0.0,-0.9,-0.0
32.721,0.2,-1.0,0.0
32.726,0.1,-1.0,0.0
32.812,0.1,-1.1,0.1
32.814,-0.1,-1.2,0.2
32.82,-0.0,-1.2,0.3
32.822,0.1,-1.2,0.3
32.825,0.1,-1.1,0.3
32.913,-0.0,-1.0,0.3
32.914,-0.0,-0.9,0.3
32.916,0.0,-0.8,0.4
32.917,0.0,-0.7,0.5
32.919,0.2,-0.7,0.5
33.044,0.3,-0.6,0.7
33.047,0.1,-0.5,0.7
33.048,-0.3,-0.3,0.6
33.05,-0.4,-0.2,0.6
33.067,-0.3,-0.2,0.6
33.158,-0.1,-0.2,0.4
33.16,0.2,-0.1,0.5
33.163,0.0,-0.1,0.6
33.164,0.0,-0.0,0.7
33.2,0.2,0.1,0.7
33.202,0.3,0.0,0.6
33.205,0.6,-0.0,0.5
33.207,0.6,-0.1,0.5
33.209,0.2,-0.0,0.4
33.212,-0.5,0.1,0.4
33.308,-0.5,0.2,0.6
33.31,0.4,0.1,0.6
33.311,1.2,0.2,0.7
33.435,1.1,0.1,0.7
33.436,0.6,0.1,0.6
33.438,0.3,0.1,0.7
33.439,0.1,-0.0,0.6
33.441,-0.2,-0.1,0.5
33.455,-0.2,-0.2,0.4
33.511,0.3,-0.2,0.2
33.517,0.3,-0.1,0.2
33.518,0.1,-0.0,0.1
33.52,0.1,-0.1,0.2
33.521,0.1,-0.2,0.3
33.619,0.1,-0.2,0.3
33.621,-0.3,0.4,0.1
33.623,-0.7,0.7,-0.2
33.625,-0.7,1.2,-0.2
33.627,-0.8,1.9,-0.4
33.718,-1.1,1.5,-1.1
33.72,-1.2,1.2,-1.2
33.721,-1.0,1.0,-1.2
33.723,-0.6,0.8,-1.3
33.725,-0.5,0.8,-1.0
33.832,-1.0,0.9,-0.7
33.834,-1.8,0.9,-0.5
33.835,-2.3,1.0,-0.4
33.849,-2.4,1.0,-0.3
33.852,-2.2,1.0,-0.2
33.909,-2.1,0.9,-0.1
33.914,-2.1,0.8,0.0
33.916,-2.1,0.8,0.1
33.917,-1.9,0.7,0.1
33.919,-1.7,0.6,0.2
34.023,-1.3,0.4,0.3
34.025,-0.9,0.4,0.5
34.026,-0.9,0.4,0.4
34.028,-1.0,0.4,0.3
34.029,-1.2,0.5,0.3
34.116,-1.4,0.6,0.4
34.118,-1.5,0.7,0.4
34.12,-1.5,0.7,0.3
34.121,-1.4,0.7,0.3
34.123,-1.1,0.6,0.2
34.224,-0.7,0.5,0.1
34.226,-0.3,0.4,0.2
34.241,-0.4,0.2,0.1
34.243,-0.3,0.4,-0.1
34.248,-0.5,0.6,-0.2
34.315,-0.9,0.6,-0.5
34.317,-0.7,0.7,-0.5
34.318,-0.3,0.8,-0.3
34.32,-0.0,0.8,-0.1
34.321,0.1,0.9,0.1
34.416,-0.1,0.9,0.4
34.417,-0.3,0.7,0.6
34.419,-0.3,0.6,0.4
34.42,-0.0,0.5,0.1
34.422,0.4,0.4,0.1
34.511,0.4,0.4,0.1
34.517,0.2,0.4,0.2
34.519,-0.2,0.4,0.5
34.52,-0.7,0.3,0.7
34.522,-0.8,0.4,0.6
34.624,-0.2,0.3,0.4
34.637,0.5,0.2,0.3
34.647,0.5,-0.0,0.4
34.648,0.1,-0.1,0.4
34.65,-0.1,-0.1,0.5
34.717,-0.2,0.0,0.5
34.719,-0.1,0.0,0.5
34.721,-0.0,-0.1,0.5
34.722,-0.1,-0.1,0.5
34.811,-0.2,-0.1,0.5
34.814,-0.1,0.0,0.3
34.822,0.1,-0.0,0.2
34.824,0.2,-0.2,0.2
34.826,0.0,-0.2,0.1
34.925,-0.2,-0.2,0.1
34.926,-0.1,-0.2,0.1
34.928,-0.1,-0.1,0.2
34.93,0.0,-0.1,0.2
34.931,0.1,-0.1,0.2
35.015,0.1,-0.0,0.1
35.028,0.1,0.0,0.1
35.029,0.1,0.0,0.1
35.031,0.2,0.0,0.1
35.041,0.3,0.0,0.1
35.118,0.3,0.0,0.1
35.119,0.1,0.0,0.1
35.136,-0.0,0.1,0.1
35.138,-0.2,0.1,0.1
35.14,-0.2,0.0,0.0
35.218,-0.0,-0.1,-0.1
35.22,-0.0,-0.1,-0.0
35.222,-0.3,-0.1,-0.0
35.223,-0.4,-0.0,-0.0
35.225,-0.2,0.0,-0.0
35.327,0.0,0.0,-0.0
35.329,0.1,0.1,-0.0
35.331,-0.0,0.1,-0.1
35.339,-0.2,0.1,-0.2
35.341,-0.2,0.5,-0.3
35.416,-0.4,0.9,-0.1
35.423,-0.7,1.3,0.2
35.425,-0.2,1.4,0.2
35.427,0.3,1.4,0.1
35.428,0.4,1.2,-0.3
35.515,0.6,1.0,-0.5
35.516,0.5,1.1,-0.4
35.518,-0.2,1.1,-0.4
35.52,-0.5,1.1,-0.6
35.521,-0.2,1.1,-0.6
35.613,0.2,1.2,-0.6
35.615,0.6,1.3,-0.7
35.617,1.2,1.2,-0.6
35.618,1.2,1.3,-0.5
35.62,0.9,1.3,-0.3
35.722,0.7,1.3,-0.2
35.734,0.7,1.1,-0.3
35.736,1.0,0.9,-0.4
35.737,1.2,0.9,-0.3
35.75,1.2,0.9,-0.3
35.811,1.3,1.0,-0.3
35.813,1.4,1.0,-0.3
35.815,1.5,1.0,-0.3
35.816,1.3,0.9,-0.2
35.818,1.0,0.8,-0.2
35.912,0.8,0.7,-0.2
35.913,0.8,0.6,-0.2
35.915,0.1,0.5,0.1
35.916,-3.0,0.7,-0.9
35.918,-1.3,0.6,0.2
36.015,-0.3,0.4,-0.0
36.016,2.4,0.4,0.4
36.018,3.2,0.2,-0.1
36.02,1.9,-0.0,-0.2
36.021,1.0,-0.5,0.5
36.148,-0.2,0.1,0.6
36.15,-0.2,0.2,0.9
36.158,-0.1,0.2,0.7
36.17,-0.2,0.7,0.3
36.171,-0.9,1.2,0.1
36.24,0.7,-0.1,-0.1
36.242,1.6,-0.0,0.9
36.247,1.9,0.1,0.7
36.249,2.3,0.1,0.6
36.251,2.5,0.4,-0.2
36.252,2.7,0.5,0.4
36.308,2.2,-0.1,0.1
36.315,1.6,0.0,0.1
36.317,1.8,0.0,0.3
36.321,2.0,0.3,0.0
36.421,2.0,0.2,0.2
36.423,1.8,-0.0,0.1
36.424,2.1,0.0,0.1
36.426,1.8,0.1,0.1
36.557,1.7,0.6,0.2
36.559,1.6,0.5,-0.1
36.561,1.6,0.6,-0.0
36.573,1.5,0.7,0.1
36.574,1.5,0.5,0.3
36.639,1.4,0.2,0.6
36.641,1.4,0.3,0.8
36.643,1.3,0.1,0.8
36.645,1.0,0.1,0.3
36.647,0.8,0.3,-0.1
36.715,0.4,0.3,-0.3
36.72,-0.4,0.2,-0.1
36.722,-1.3,-0.0,-0.0
36.723,-1.4,-0.3,-0.1
36.725,-1.3,-0.4,0.0
36.814,-1.1,-0.4,-0.0
36.816,-1.2,-0.2,-0.2
36.824,-1.3,-0.1,-0.1
36.825,-1.4,-0.0,0.2
36.827,-1.3,0.6,-0.0
36.921,-1.7,0.3,-0.1
36.923,-0.8,0.2,-1.3
36.934,0.5,-0.3,-1.5
36.936,1.2,0.1,0.1
36.937,0.9,0.0,0.2
37.018,-0.0,0.2,0.5
37.02,-0.5,0.3,0.3
37.022,-0.1,0.2,0.3
37.023,-0.4,0.1,0.1
37.025,-0.3,0.2,0.1
37.134,-0.0,0.0,0.2
37.136,-0.2,-0.0,0.1
37.137,0.3,-0.0,0.3
37.139,0.7,-0.2,0.3
37.142,0.3,-0.1,-0.0
37.239,0.4,-0.1,0.0
37.242,0.1,-0.0,-0.1
37.243,0.0,-0.0,-0.2
37.245,0.4,-0.0,0.0
37.254,0.4,-0.1,0.1
