accel_time_list,accel_x_list,accel_y_list,accel_z_list
0.001,2.2,1.1,10.1
0.005,0.5,0.7,8.9
0.102,1.1,1.1,9.5
0.109,1.0,0.6,9.7
0.205,1.8,0.1,9.7
0.209,1.7,0.7,9.7
0.212,1.1,0.6,9.6
0.302,1.5,0.6,9.6
0.305,1.4,0.6,9.5
0.415,1.3,0.6,9.3
0.418,1.2,0.5,9.4
0.425,1.1,0.5,9.3
0.477,1.0,0.6,9.5
0.484,1.6,-0.8,9.2
0.598,1.1,0.2,9.9
0.602,1.2,0.2,10.0
0.702,1.3,-0.1,10.3
0.705,1.5,0.1,10.6
0.708,1.3,0.5,10.0
0.801,1.0,0.8,9.6
0.805,0.8,0.5,8.8
0.808,0.3,-0.2,7.7
0.906,-0.5,0.1,7.2
0.91,-1.1,0.3,6.4
1.0,-1.7,0.3,6.0
1.004,-3.6,-3.2,6.7
1.007,-3.2,-6.3,6.9
1.106,-5.8,-2.1,6.9
1.117,-6.1,-0.8,7.4
1.2,-7.6,-0.6,5.8
1.207,-6.7,-0.4,4.4
1.21,-15.8,2.1,-0.0
1.303,-28.0,-4.6,-5.1
1.306,-10.4,-3.3,0.8
1.378,-10.3,-2.1,0.7
1.386,-9.8,-2.7,0.3
1.389,-10.5,-3.9,-0.5
1.5,-10.6,-4.0,-0.2
1.601,-10.3,-4.1,0.6
1.605,-9.7,-3.4,1.2
1.611,-8.4,-1.0,2.8
1.7,-10.1,2.9,3.6
1.703,-9.0,0.7,1.2
1.706,-9.3,-4.8,-0.2
1.827,-9.1,-3.5,-0.1
1.831,-9.1,-1.3,0.4
1.902,-9.0,-0.3,1.0
1.913,-10.5,-0.9,1.2
1.918,-13.3,-2.5,0.0
1.921,-11.4,-4.0,-0.2
1.999,-9.3,-3.3,-0.9
2.1,-10.9,-2.0,-1.2
2.103,-12.0,-0.9,-1.0
2.111,-9.9,-1.2,-0.3
2.206,-10.8,0.0,-0.4
2.209,-8.2,0.6,0.6
2.3,-7.6,-0.6,-0.3
2.311,-7.2,-1.5,-0.4
2.333,-7.7,-1.8,-0.3
2.401,-8.4,-1.9,-0.1
2.404,-9.0,-1.4,0.0
2.504,-10.9,-1.1,-0.0
2.508,-12.1,-1.0,0.1
2.511,-12.3,-1.0,0.2
2.602,-13.7,-1.3,0.7
2.61,-11.2,-1.7,2.1
2.7,-8.2,-1.8,1.2
2.703,-6.2,-1.4,-0.2
2.71,-9.4,-1.0,-1.1
2.807,-12.8,-2.1,-1.5
2.81,-11.8,-1.8,0.3
2.899,-8.3,-1.7,1.6
2.903,-6.9,-1.0,0.8
2.906,-7.3,-1.5,0.4
3.005,-8.0,-2.8,0.3
3.011,-8.7,-3.6,0.7
3.099,-9.1,-3.0,1.4
3.102,-10.8,-1.2,1.1
3.106,-12.0,0.1,0.6
3.2,-10.6,0.4,0.8
3.208,-11.7,0.6,0.6
3.302,-12.3,-1.9,-0.4
3.306,-10.1,-4.0,-0.4
3.4,-7.8,-3.5,-0.9
3.403,-9.5,-2.1,-1.6
3.42,-10.9,-1.3,-1.2
3.505,-10.4,-0.5,-0.4
3.508,-8.8,0.4,0.1
3.6,-8.0,0.7,0.3
3.603,-7.9,-0.4,0.9
3.606,-8.5,1.3,2.1
3.705,-9.8,0.3,1.3
3.709,-9.9,-1.1,0.9
3.802,-11.8,-1.5,0.4
3.805,-11.8,-1.8,1.1
3.821,-11.0,-1.3,0.7
3.901,-12.3,-0.5,0.5
3.904,-11.7,-1.0,1.1
3.999,-9.9,-1.9,1.2
4.006,-7.7,-0.9,0.6
4.009,-10.5,0.5,-0.4
4.1,-9.3,0.8,0.4
4.103,-10.0,0.2,0.5
4.175,-8.3,0.1,1.3
4.186,-8.0,-0.0,0.4
4.191,-7.9,-0.1,0.1
4.303,-6.7,-0.4,-0.0
4.307,-6.9,-0.7,-0.9
4.404,-7.7,-0.9,-0.3
4.407,-14.4,4.2,11.1
4.411,-9.8,2.7,1.3
4.501,-10.1,-16.8,-3.8
4.504,-11.2,-12.3,-0.1
4.6,-13.4,-1.7,-4.6
4.622,-10.3,-2.1,-2.5
4.625,-8.0,-0.2,-1.3
4.707,-8.2,1.0,-0.9
4.71,-12.0,1.4,-1.1
4.8,-12.8,-0.7,-0.6
4.803,-9.6,-2.5,-0.9
4.806,-7.3,-2.0,-0.9
4.9,-6.5,-2.2,-0.7
4.903,-7.0,-3.2,-0.7
5.01,-7.2,-2.6,0.4
5.019,-8.3,-1.5,0.5
5.099,-10.2,-1.1,0.8
5.102,-10.0,-0.9,0.1
5.106,-10.7,-0.6,1.0
5.201,-12.2,0.2,5.3
5.204,-16.1,-1.4,0.0
5.299,-12.1,-2.0,-0.2
5.302,-8.4,-1.5,-1.0
5.306,-8.6,-1.1,-2.2
5.401,-12.1,-0.0,-1.7
5.404,-11.5,-0.5,0.5
5.499,-8.6,-1.8,1.5
5.508,-6.9,-1.7,1.2
5.511,-6.1,-1.9,0.7
5.605,-6.4,-2.0,1.2
5.609,-7.1,-2.1,1.5
5.698,-8.0,-1.7,1.7
5.702,-11.9,-1.1,1.0
5.714,-13.0,-0.8,1.6
5.801,-13.3,0.5,1.6
5.804,-13.7,-0.3,-0.3
5.899,-12.5,-1.3,-1.2
5.902,-10.9,-1.4,-0.4
5.906,-7.4,-2.5,0.1
6.005,-8.5,-2.5,-0.3
6.008,-10.6,-2.5,-1.0
6.099,-8.9,-2.9,0.4
6.106,-7.8,-1.1,0.7
6.118,-7.4,-0.3,0.7
6.204,-7.8,-0.6,0.1
6.208,-8.4,-1.2,0.3
6.299,-8.9,-1.1,1.0
6.302,-8.8,-0.9,1.2
6.305,-10.1,-0.7,0.4
6.4,-11.8,-0.8,0.3
6.404,-13.0,-1.2,1.1
6.499,-13.7,-1.4,1.3
6.512,-12.0,-1.4,1.0
6.599,-9.0,-1.2,0.7
6.603,-6.3,-1.0,-0.7
6.606,-9.6,0.4,-2.0
6.7,-12.4,0.2,-1.7
6.704,-9.9,-1.8,2.9
6.808,-8.0,-3.4,4.3
6.811,-6.7,-2.6,1.5
6.815,-6.6,-2.2,-0.7
6.9,-8.4,-1.2,1.1
6.912,-8.9,-0.5,2.6
6.999,-9.3,-1.4,2.7
7.002,-11.7,-1.9,1.6
7.005,-11.0,-2.2,0.9
7.101,-11.1,-1.6,0.3
7.104,-13.3,-1.2,-0.3
7.199,-12.4,-2.6,0.7
7.204,-8.1,-2.5,0.9
7.207,-8.9,-0.6,-0.5
7.698,-14.0,-2.7,0.5
7.702,-10.6,-2.5,1.8
7.705,-9.8,-0.6,1.2
7.8,-11.4,-0.7,-0.0
7.803,-10.0,-1.9,-0.2
7.898,-7.6,-2.2,-0.3
7.902,-7.9,-1.9,-0.7
7.909,-11.4,-2.1,-0.3
7.979,-12.2,-2.2,1.9
7.982,-11.2,-1.7,3.8
7.31,-11.7,-1.4,-1.1
7.313,-10.8,-2.5,0.3
7.417,-8.3,-1.4,1.3
7.42,-7.5,0.0,1.0
7.499,-7.9,0.3,0.6
7.505,-7.8,-0.7,0.7
7.508,-7.2,-1.2,1.5
7.601,-7.7,-1.2,1.2
7.605,-11.9,-1.0,0.1
7.992,-10.4,-1.0,3.3
8.098,-8.6,0.1,1.3
8.2,-7.6,-0.0,0.4
8.203,-7.1,-1.1,0.9
8.211,-7.9,-2.4,1.3
8.299,-8.5,-3.4,1.0
8.302,-10.8,-3.7,0.7
8.305,-12.4,-3.6,0.7
8.424,-12.9,-2.9,0.4
8.428,-14.6,-1.2,-0.4
8.528,-9.7,-1.6,-0.3
8.531,-8.0,-1.4,-0.2
8.539,-8.9,-1.7,-1.6
8.597,-10.3,-1.8,-1.3
8.602,-11.2,-2.0,-0.7
8.698,-9.8,-2.2,-0.4
8.701,-9.0,-1.6,-0.0
8.708,-8.1,-1.6,-0.6
8.8,-7.9,-2.0,-1.2
8.812,-8.0,-2.2,-0.9
8.898,-8.1,-2.3,-0.0
8.906,-9.2,-2.0,-0.3
8.909,-10.8,-1.8,-0.9
9.005,-11.3,-1.7,-1.0
9.008,-10.7,-1.6,1.2
9.123,-10.0,-1.4,2.4
9.132,-12.4,-0.2,1.4
9.135,-12.5,0.2,1.5
9.206,-8.9,-0.2,1.5
9.22,-7.8,-0.7,-0.3
9.223,-9.2,-1.1,-1.2
9.297,-11.0,-1.8,-1.3
9.301,-10.1,-3.1,0.3
9.4,-8.5,-3.5,0.9
9.403,-7.8,-3.0,0.1
9.498,-8.7,-2.9,-0.5
9.501,-9.7,-2.8,-0.6
9.504,-10.5,-3.1,0.2
9.611,-10.6,-2.7,0.2
9.615,-10.4,-1.1,-0.1
9.698,-10.4,-0.0,-0.4
9.701,-10.6,0.3,-0.6
9.704,-11.1,-0.0,-0.3
9.801,-11.5,-1.0,0.2
9.806,-8.1,-2.3,1.0
9.9,-6.2,-2.1,-0.2
9.905,-8.0,-2.0,-1.7
9.998,-10.9,-2.5,-2.2
10.017,-12.0,-3.5,-1.8
10.021,-9.2,-3.7,-0.6
10.101,-8.5,-2.3,-1.3
10.106,-9.1,-1.8,-1.7
10.202,-10.2,-1.9,-1.7
10.205,-10.2,-1.2,-1.0
10.209,-10.0,-1.1,-0.7
10.3,-10.9,-1.4,-1.2
10.304,-11.1,-2.0,-1.3
10.399,-12.3,-2.4,-1.2
10.404,-12.9,-2.4,-0.0
10.408,-10.0,-2.3,2.3
10.5,-7.7,-0.8,1.8
10.503,-7.3,-0.1,-0.4
10.598,-10.0,-0.3,-2.4
10.601,-13.1,-0.8,-2.0
10.604,-10.6,-1.3,1.5
10.699,-7.8,-1.9,2.7
10.708,-6.6,-1.6,1.3
10.798,-7.2,-2.1,-0.3
10.801,-8.6,-2.2,-0.7
10.808,-8.7,-2.0,-0.2
10.899,-9.0,-1.6,0.5
10.903,-10.3,-1.4,1.6
10.998,-12.0,-0.5,2.9
11.001,-13.3,0.2,2.7
11.008,-13.9,0.2,2.4
11.099,-12.1,-1.7,2.1
11.119,-9.0,-2.9,0.9
11.198,-6.5,-2.7,-0.2
11.201,-9.3,-2.7,-0.5
11.208,-10.7,-2.8,-0.7
11.304,-9.7,-3.1,-0.9
11.307,-8.8,-1.9,-0.7
11.374,-8.2,-1.5,-0.1
11.377,-7.8,-1.9,-0.1
11.38,-8.2,-2.0,-0.4
11.497,-7.8,-1.6,0.4
11.599,-8.0,-1.5,1.4
11.602,-10.1,-1.3,2.5
11.606,-12.6,-1.1,3.7
11.698,-13.1,0.6,4.3
11.704,-14.1,2.4,4.1
11.708,-14.2,1.0,1.2
11.799,-10.5,-0.9,0.7
11.802,-7.2,-1.4,-0.2
11.899,-8.4,-1.6,-0.4
11.916,-9.2,-2.2,-0.9
11.919,-9.1,-2.4,-0.1
12.006,-6.9,-2.1,1.2
12.009,-5.9,-1.4,1.2
12.098,-6.3,-1.6,1.5
12.101,-7.8,-2.1,2.1
12.109,-9.0,-2.2,3.0
12.199,-9.8,-2.2,3.4
12.207,-13.0,-2.5,2.6
12.298,-13.5,-2.8,1.1
12.309,-11.0,-2.0,1.1
12.313,-12.3,-1.5,1.0
12.4,-12.7,-2.8,0.6
12.403,-9.9,-3.6,0.9
12.497,-7.2,-3.5,0.4
12.502,-8.6,-2.4,-0.8
12.51,-12.0,-1.5,-1.7
12.599,-11.9,-1.5,-0.8
12.602,-9.9,-1.2,0.4
12.697,-8.4,-0.1,0.8
12.7,-7.4,-1.1,1.4
12.704,-7.4,-1.5,0.9
12.799,-7.1,-1.5,1.9
12.805,-7.1,-0.8,2.0
12.897,-9.3,-0.6,1.3
12.901,-11.3,-0.7,1.2
12.908,-10.4,-0.7,1.9
12.998,-12.2,-0.8,0.8
13.002,-15.4,-1.5,1.1
13.096,-11.0,-1.7,2.6
13.099,-7.2,-0.8,1.4
13.197,-8.2,-0.5,0.5
13.205,-12.4,-1.7,-1.0
13.208,-12.0,-1.3,0.5
13.304,-8.5,-1.6,2.6
13.307,-6.7,-1.3,2.4
13.397,-6.6,-1.2,1.7
13.4,-7.4,-1.4,1.5
13.411,-7.2,-1.8,1.8
13.498,-8.1,-1.9,1.5
13.502,-12.2,-2.4,1.0
13.597,-12.2,-3.1,1.7
13.607,-10.9,-2.9,2.1
13.611,-12.6,-2.2,2.3
13.703,-13.9,-2.3,1.4
13.706,-9.8,-3.1,0.7
13.797,-7.2,-2.2,0.4
13.802,-10.1,-1.2,-0.9
13.818,-12.8,-1.5,-1.2
13.898,-11.6,-2.1,0.2
13.901,-8.2,-1.9,0.5
13.996,-6.8,-0.9,0.9
14.001,-6.6,-0.9,0.5
14.01,-7.3,-1.2,0.0
14.103,-7.7,-1.1,0.3
14.107,-8.0,-0.8,0.8
14.222,-9.5,-1.0,0.8
14.233,-10.4,-1.4,1.5
14.236,-11.0,-1.7,3.1
14.3,-14.2,-1.8,2.7
14.311,-14.8,-2.0,1.4
14.314,-10.7,-2.2,0.2
14.398,-7.4,-0.2,0.3
14.402,-8.9,-0.5,-0.9
14.501,-12.0,-1.8,-1.7
14.509,-12.8,-3.1,-0.4
14.597,-8.6,-3.3,1.9
14.62,-6.2,-2.5,2.2
14.623,-5.3,-2.4,1.6
14.698,-7.3,-2.6,0.3
14.708,-10.0,-2.4,-0.2
14.797,-9.5,-2.5,0.4
14.801,-9.0,-1.7,0.7
14.897,-10.3,-0.5,1.6
14.907,-11.6,-1.0,1.4
14.911,-12.6,-2.3,0.5
15.006,-13.2,-2.8,0.5
15.01,-10.4,-3.0,0.9
15.097,-7.1,-2.6,0.4
15.1,-7.8,-1.9,-0.8
15.107,-11.7,-1.4,-1.7
15.173,-14.3,-2.2,-1.0
15.176,-10.5,-2.6,0.5
15.295,-8.8,-0.4,-0.1
15.303,-7.2,-0.3,-0.0
15.398,-7.7,-0.5,-0.1
15.409,-7.8,-1.3,-0.4
15.418,-7.3,-1.6,0.4
15.501,-8.4,-1.4,0.3
15.505,-9.7,-1.6,0.5
15.513,-10.3,-1.6,2.1
15.598,-11.4,-1.6,3.5
15.601,-14.4,-1.1,2.3
15.696,-14.6,-0.9,0.5
15.699,-9.8,-1.3,-0.1
15.716,-7.8,0.2,0.2
15.808,-9.5,-0.3,-0.3
15.812,-11.7,-4.8,-1.0
15.871,-9.7,-9.6,-0.5
15.875,-9.2,-6.1,0.4
15.879,-8.9,-3.8,0.8
15.997,-8.4,-2.5,0.4
16.098,-7.9,-3.6,0.3
16.102,-6.3,-4.9,0.8
16.109,-7.7,-2.5,2.6
16.121,-5.8,-3.5,1.7
16.198,-6.2,-7.3,-1.9
16.201,-5.6,-7.3,-1.3
16.296,-7.2,-7.3,0.6
16.3,-10.4,-7.5,0.3
16.303,-11.3,-6.9,-0.6
16.398,-7.7,-3.8,-0.5
16.407,-7.2,-0.9,-0.6
16.498,-10.9,-1.9,-1.2
16.509,-12.9,-1.7,-4.1
16.596,-7.7,-6.8,-7.1
16.609,-4.9,-8.3,-4.5
16.613,-4.6,-6.0,-3.5
16.698,-4.2,-4.6,-4.2
16.706,-4.3,-3.7,-4.3
16.796,-6.2,-3.5,-4.5
16.803,-9.4,-4.9,-5.6
16.807,-9.8,-7.0,-6.3
16.904,-8.7,-6.2,-5.4
16.917,-7.8,-4.5,-4.5
16.996,-7.7,-4.0,-4.4
17.003,-8.1,-4.4,-5.4
17.006,-7.4,-4.0,-5.7
17.099,-6.9,-3.2,-4.7
17.103,-7.8,-2.9,-3.9
17.195,-8.7,-4.9,-4.4
17.198,-8.7,-5.9,-5.1
17.202,-6.5,-7.1,-5.9
17.312,-5.6,-5.4,-6.1
17.315,-6.0,-5.9,-6.6
17.403,-0.8,-10.7,-3.6
17.406,-0.8,-1.4,-1.1
17.435,-17.7,-9.0,-9.9
17.498,-10.2,-7.2,-3.7
17.501,-12.9,-9.1,-1.6
17.596,-13.1,-10.8,0.3
17.599,-14.2,-6.6,2.8
17.603,-11.4,-0.7,1.1
17.698,3.3,1.1,2.9
17.703,-9.7,1.1,0.1
17.797,0.3,0.4,6.1
17.801,0.6,0.7,8.1
17.804,-2.9,-1.9,8.2
17.898,-0.0,-2.7,7.8
17.901,-2.0,-3.1,8.7
18.031,-5.0,0.5,9.6
18.034,-0.7,-4.0,9.3
18.053,-2.7,1.2,9.3
18.124,-2.0,-1.3,10.0
18.127,-3.1,0.4,10.3
18.206,-6.1,0.1,10.1
18.209,-6.4,-0.9,9.4
18.3,-3.9,1.1,8.3
18.303,-3.2,0.1,7.1
18.311,-2.6,0.6,8.2
18.425,-4.5,1.2,8.8
18.428,-6.4,1.3,9.2
18.534,-2.1,0.2,10.9
18.539,-2.5,3.3,11.2
18.543,-3.4,-0.5,9.3
18.618,-2.7,-0.2,8.9
18.621,-2.2,-0.0,8.6
18.671,-1.2,-0.5,9.1
18.674,-2.8,0.3,8.7
18.677,-2.5,0.3,9.3
18.796,-3.2,0.1,7.3
18.809,-2.1,0.4,10.1
18.903,-3.3,-0.1,9.4
18.906,-1.7,0.4,9.8
18.91,-2.9,-0.2,9.1
18.997,-2.6,-0.1,9.3
19.001,-2.4,-0.1,9.5
19.096,-2.5,0.1,9.3
19.099,-1.6,-1.8,8.7
19.107,-1.9,0.7,9.6
19.197,-2.8,1.1,9.6
19.209,-1.9,-2.3,9.8
19.297,-3.0,0.6,9.9
19.3,-2.7,0.2,9.6
19.303,-3.4,0.7,8.8
19.424,-3.3,0.5,9.1
19.432,-3.1,1.4,9.3
19.497,-3.0,0.2,9.4
19.5,-2.9,-0.2,9.6
19.504,-2.8,-0.0,9.5
19.605,-3.0,0.2,9.5
19.618,-2.9,0.0,9.5
19.696,-2.8,-0.2,9.4
19.7,-2.6,0.1,9.3
19.798,-2.9,-0.0,9.3
19.801,-2.6,0.0,9.3
19.813,-2.9,0.1,9.2
