accel_time_list,accel_x_list,accel_y_list,accel_z_list
0.0,-0.9,0.9,9.9
0.006,-1.6,2.6,9.7
0.008,-0.7,1.3,7.4
0.009,-1.4,1.6,10.0
0.103,-0.6,1.6,9.8
0.105,-1.5,2.2,9.3
0.106,-1.9,1.7,9.6
0.22,-1.2,1.2,9.7
0.223,-0.8,0.9,10.0
0.225,-1.2,1.6,9.8
0.226,-0.9,1.4,9.3
0.321,-0.9,1.7,9.4
0.329,-1.0,1.8,9.9
0.33,-1.2,1.9,9.9
0.332,-0.9,1.9,9.8
0.334,-0.4,1.6,9.7
0.421,-2.9,0.4,9.1
0.423,-1.8,2.5,10.0
0.424,-1.2,2.6,10.3
0.426,-1.5,2.1,9.9
0.496,-1.7,1.1,9.0
0.498,-1.7,1.0,8.7
0.5,-1.8,1.6,8.2
0.505,-1.6,2.0,8.0
0.619,-2.0,3.0,7.7
0.621,-2.3,2.6,7.8
0.622,-2.5,1.8,8.0
0.721,-2.7,1.3,8.1
0.724,-2.9,1.5,8.3
0.727,-3.1,1.5,8.1
0.728,-3.2,1.1,8.3
0.738,-3.3,0.9,8.8
0.822,-3.6,0.8,9.1
0.823,-3.6,0.5,8.9
0.825,-3.7,0.3,8.9
0.827,-3.8,0.3,9.0
0.92,-3.8,0.2,9.4
0.927,-3.8,-0.4,9.5
0.928,-3.8,-1.1,9.3
0.93,-3.8,-1.3,9.0
1.021,-4.3,-1.1,9.1
1.023,-4.4,-1.0,9.1
1.03,-4.5,-0.6,9.0
1.031,-4.9,-0.5,8.8
1.121,-5.6,-0.7,9.1
1.123,-5.7,-0.6,9.0
1.138,-5.8,-0.6,8.8
1.14,-6.1,-0.9,8.5
1.224,-6.6,-0.4,7.5
1.226,-6.7,-0.7,6.8
1.228,-6.7,-0.9,6.4
1.229,-6.9,-0.9,6.3
1.319,-7.5,-1.4,6.4
1.321,-7.5,-1.4,6.3
1.421,-7.6,-1.3,6.0
1.423,-8.1,-1.1,5.7
1.426,-8.9,-0.8,5.6
1.428,-8.9,-0.7,5.3
1.43,-8.7,-0.9,5.0
1.431,-8.8,-1.0,4.6
1.522,-9.3,-1.0,4.3
1.533,-9.6,-1.1,4.3
1.536,-9.9,-0.6,4.7
1.543,-10.1,-0.8,4.5
1.62,-10.5,-1.4,5.2
1.622,-10.5,-1.0,6.0
1.623,-10.4,-0.5,6.2
1.719,-10.4,-0.4,6.0
1.722,-10.2,-0.2,5.7
1.724,-9.9,-0.1,5.6
1.726,-9.3,-0.2,5.5
1.819,-8.9,-0.3,5.4
1.822,-8.3,-0.2,5.5
1.824,-8.3,-0.3,5.3
1.826,-8.4,-0.9,5.0
1.919,-8.5,-1.0,5.0
1.93,-8.4,0.1,5.3
1.932,-8.6,0.4,5.4
1.934,-8.8,0.4,5.3
2.019,-8.8,0.3,5.3
2.022,-8.6,-0.3,4.9
2.024,-8.2,-0.6,4.6
2.032,-8.3,-0.7,4.5
2.119,-8.3,-0.3,4.8
2.122,-8.7,0.6,4.7
2.124,-8.8,0.7,4.4
2.13,-9.0,0.3,3.9
2.219,-9.0,-0.3,3.8
2.226,-8.7,0.4,4.0
2.228,-8.7,0.5,4.0
2.23,-8.9,0.4,3.8
2.328,-9.2,0.1,3.7
2.339,-9.3,-0.5,3.4
2.341,-9.2,-0.2,3.7
2.342,-9.2,0.2,3.9
2.419,-9.1,0.2,4.0
2.423,-8.8,0.3,3.8
2.428,-9.0,0.6,4.0
2.43,-9.2,1.0,4.0
2.519,-9.2,1.2,4.0
2.523,-8.7,1.0,3.9
2.524,-8.7,0.8,3.8
2.526,-8.8,0.5,3.6
2.619,-8.8,0.3,3.4
2.622,-8.6,0.0,3.4
2.624,-8.7,0.0,3.6
2.626,-9.1,0.2,3.7
2.719,-9.2,0.4,3.9
2.726,-9.6,0.1,3.8
2.728,-9.7,-0.4,3.3
2.729,-9.8,-1.4,3.0
2.819,-9.7,-1.8,3.4
2.826,-9.0,-0.8,5.4
2.827,-9.0,-0.1,6.2
2.829,-9.1,0.8,6.2
2.919,-9.4,1.4,5.6
2.922,-10.0,0.6,4.6
2.924,-9.7,0.0,4.9
2.925,-9.5,-0.4,5.2
3.021,-9.3,-0.7,5.2
3.029,-9.1,-1.1,4.5
3.03,-9.3,-0.6,4.1
3.04,-9.2,-0.1,3.9
3.119,-9.0,-0.1,3.6
3.122,-9.0,-0.7,3.3
3.124,-9.0,-1.1,3.2
3.125,-8.7,-1.4,3.2
3.223,-8.5,-1.7,3.2
3.227,-8.8,-1.5,3.0
3.232,-9.1,-1.5,2.8
3.237,-9.4,-1.5,2.9
3.318,-9.6,-1.4,3.0
3.321,-9.2,-0.8,3.3
3.323,-9.1,-0.3,3.3
3.419,-9.0,0.1,3.2
3.425,-9.1,0.2,3.2
3.428,-9.5,0.4,2.7
3.441,-9.8,0.1,2.6
3.519,-10.1,-0.1,2.7
3.521,-10.0,-0.3,3.0
3.528,-9.7,-0.5,3.2
3.53,-9.7,-0.5,3.2
3.619,-9.8,-0.7,3.2
3.62,-10.1,-1.0,3.0
3.624,-10.2,-1.2,3.1
3.625,-10.0,-1.2,3.2
3.719,-9.9,-1.2,3.1
3.721,-9.7,-1.1,3.2
3.724,-9.7,-1.3,3.2
3.725,-9.4,-1.4,3.3
3.819,-9.3,-1.3,3.2
3.82,-9.3,-1.2,3.3
3.837,-9.0,-1.0,3.3
3.839,-9.3,-0.8,2.8
3.919,-9.4,-0.6,2.5
3.92,-9.7,-0.3,2.5
3.924,-9.2,-0.2,2.7
3.925,-9.1,-0.4,2.4
4.019,-9.3,-0.2,2.2
4.02,-9.4,0.1,2.5
4.023,-9.4,0.7,2.5
4.028,-9.2,0.7,2.3
4.131,-9.2,0.5,2.2
4.132,-9.3,0.4,2.3
4.136,-9.5,0.2,2.2
4.137,-9.7,0.2,2.3
4.219,-10.0,0.1,2.4
4.22,-10.1,0.1,2.5
4.231,-9.5,0.0,2.3
4.233,-10.2,-0.1,2.6
4.322,-10.2,0.2,2.9
4.324,-9.5,0.2,3.1
4.327,-9.0,0.0,3.1
4.329,-8.9,-0.2,3.0
4.419,-9.3,0.0,3.0
4.425,-9.9,-0.0,3.0
4.428,-9.7,-0.6,2.8
4.43,-9.5,-0.8,2.7
4.526,-9.2,-1.0,2.8
4.528,-9.1,-1.2,3.0
4.533,-9.0,-1.5,2.9
4.536,-9.0,-1.3,2.9
4.621,-9.3,-0.9,2.8
4.633,-9.6,-0.6,2.8
4.638,-9.7,-0.1,2.8
4.639,-9.5,0.0,2.7
4.718,-9.5,-0.1,2.8
4.724,-9.4,-0.1,2.9
4.727,-9.6,-0.1,2.9
4.728,-9.6,-0.3,2.8
4.821,-9.6,-0.4,2.7
4.824,-9.6,-0.2,2.6
4.828,-9.8,0.1,2.6
4.829,-9.7,0.2,2.7
4.918,-9.5,0.1,2.7
4.92,-9.7,0.2,2.5
4.923,-9.6,-0.0,2.4
5.018,-9.6,-0.1,2.3
5.028,-9.5,-0.1,2.4
5.03,-9.6,-0.2,2.4
5.042,-9.7,-0.5,2.3
5.119,-9.5,-0.4,2.4
5.12,-9.6,-0.4,2.5
5.122,-9.7,-0.3,2.6
5.125,-9.5,-0.1,2.8
5.218,-9.3,-0.3,2.7
5.22,-9.4,-0.4,2.6
5.222,-9.4,-0.6,2.6
5.228,-9.3,-0.8,2.6
5.318,-9.3,-1.0,2.5
5.32,-9.4,-0.9,2.4
5.322,-9.5,-0.8,2.5
5.325,-9.8,-0.6,2.6
5.419,-9.9,-0.7,2.8
5.42,-10.1,-0.8,2.8
5.422,-10.0,-1.2,2.8
5.425,-10.0,-1.0,3.0
5.518,-9.7,-0.8,3.2
5.52,-9.2,-0.8,3.1
5.522,-8.6,-0.8,2.9
5.531,-8.6,-0.5,2.6
5.618,-9.1,-0.7,2.3
5.62,-9.4,-1.1,2.4
5.622,-9.8,-1.0,2.3
5.625,-9.9,-1.0,2.3
5.718,-9.7,-1.0,2.5
5.72,-9.6,-1.2,2.7
5.722,-9.5,-1.1,2.8
5.736,-9.9,-0.8,2.8
5.821,-9.9,-0.8,2.9
5.823,-10.0,-0.7,2.9
5.828,-10.1,-0.5,2.8
5.831,-10.1,-0.4,2.8
5.927,-10.0,-0.5,2.9
5.928,-9.9,-0.5,2.9
5.93,-9.7,-0.4,2.9
5.933,-9.9,-0.0,3.0
6.018,-9.8,0.1,3.1
6.02,-9.7,0.2,2.8
6.021,-9.1,0.1,2.5
6.025,-8.2,-1.1,1.6
6.143,-9.3,-1.9,3.2
6.148,-9.7,-2.2,4.1
6.15,-9.6,-1.9,3.8
6.162,-10.2,-0.6,3.2
6.245,-9.7,-0.2,3.4
6.246,-9.5,-0.0,3.6
6.248,-9.6,-0.1,3.6
6.251,-9.3,-0.6,3.9
6.253,-9.5,-1.0,3.6
6.316,-9.8,-1.2,3.4
6.318,-9.7,-1.3,3.3
6.329,-9.5,-1.3,2.9
6.421,-9.5,-1.2,2.8
6.423,-9.4,-1.4,2.9
6.425,-9.0,-1.5,3.2
6.518,-7.8,-0.9,3.4
6.519,-8.2,-0.5,3.2
6.521,-8.5,-0.2,3.2
6.53,-8.8,-0.3,3.1
6.618,-8.8,-0.5,3.2
6.62,-9.0,-0.4,3.3
6.622,-9.0,-0.4,3.5
6.623,-9.0,-0.0,3.5
6.743,-9.6,0.3,3.3
6.751,-9.8,0.4,3.5
6.753,-9.5,0.3,3.9
6.754,-9.2,0.1,3.9
6.825,-9.4,0.1,3.9
6.827,-9.5,-0.1,4.0
6.828,-9.1,-0.5,4.3
6.83,-9.2,-0.5,4.2
6.833,-9.8,-0.6,4.0
6.841,-9.6,-0.4,4.0
6.915,-9.8,-0.8,3.9
6.917,-9.7,-0.9,3.8
7.02,-9.4,-0.8,3.7
7.022,-9.4,-0.8,3.6
7.023,-9.1,-1.0,3.7
7.025,-8.8,-1.1,3.6
7.127,-8.6,-1.2,3.3
7.129,-8.8,-1.1,3.3
7.131,-8.9,-1.0,3.2
7.132,-9.2,-1.0,3.0
7.217,-9.2,-1.1,2.9
7.219,-9.1,-1.0,2.9
7.221,-9.2,-0.9,2.9
7.223,-9.3,-0.8,2.9
7.321,-9.6,-0.7,3.1
7.333,-9.7,-0.5,3.3
7.335,-9.8,-0.3,3.4
7.336,-9.7,-0.3,3.5
7.417,-9.6,-0.6,3.5
7.419,-9.7,-0.6,3.4
7.42,-9.7,-0.7,3.3
7.422,-9.8,-0.7,3.2
7.517,-9.8,-0.5,3.2
7.519,-9.7,-0.4,3.1
7.521,-9.7,-0.4,3.0
7.529,-9.8,-0.6,2.9
7.618,-9.5,-1.0,2.6
7.619,-9.2,-1.1,2.4
7.621,-9.2,-1.0,2.4
7.623,-9.3,-0.9,2.7
7.718,-9.0,-1.3,2.9
7.719,-9.1,-1.3,3.1
7.721,-9.0,-1.0,3.1
7.723,-9.1,-0.6,3.1
7.818,-9.4,-0.2,2.8
7.82,-9.5,-0.0,2.8
7.821,-9.6,-0.1,2.8
7.828,-9.6,-0.4,2.9
7.921,-9.4,-0.8,2.8
7.923,-9.6,-0.9,2.9
7.93,-9.6,-0.8,3.0
7.932,-9.7,-0.8,3.0
8.018,-9.7,-0.5,3.0
8.019,-9.8,-0.4,2.9
8.021,-9.9,-0.4,2.8
8.023,-9.7,-0.2,2.7
8.13,-9.6,-0.1,2.7
8.132,-9.4,-0.2,2.6
8.134,-9.4,-0.4,2.6
8.135,-9.4,-0.4,2.7
8.218,-9.3,-0.2,2.8
8.219,-9.3,0.0,2.7
8.221,-9.3,-0.0,2.7
8.226,-9.4,-0.3,2.8
8.324,-9.7,-0.4,2.7
8.325,-9.8,-0.4,2.6
8.327,-9.7,-0.4,2.7
8.329,-9.7,-0.4,2.8
8.419,-9.5,-0.6,3.0
8.421,-9.2,-0.7,2.9
8.422,-9.1,-0.8,2.7
8.432,-9.3,-0.9,2.5
8.519,-9.7,0.1,3.2
8.521,-9.6,0.5,3.1
8.522,-10.1,0.3,2.8
8.528,-9.8,-1.0,2.3
8.623,-9.4,-3.2,1.5
8.624,-9.4,-2.6,1.7
8.626,-9.5,-2.5,1.7
8.627,-9.2,-1.8,1.9
8.719,-9.2,-0.7,2.3
8.721,-9.4,-0.0,2.6
8.722,-9.7,-0.1,2.8
8.724,-9.7,-0.2,3.0
8.819,-9.5,-0.1,2.6
8.821,-9.8,-0.1,2.5
8.83,-10.2,-0.4,2.6
8.844,-10.4,-0.5,2.6
8.919,-9.9,0.3,2.3
8.921,-9.9,0.2,2.1
8.922,-9.7,0.0,1.7
8.924,-10.0,-0.6,1.3
9.019,-9.8,-0.7,0.5
9.021,-9.7,0.5,1.4
9.023,-9.3,1.3,2.2
9.024,-9.4,0.2,2.0
9.125,-10.6,0.2,-0.2
9.127,-9.8,0.4,0.2
9.13,-9.1,0.3,1.1
9.131,-9.3,0.1,1.5
9.219,-9.6,0.3,2.1
9.229,-11.0,0.1,2.2
9.231,-9.8,-0.2,2.0
9.232,-9.4,-0.3,2.5
9.323,-10.1,-1.7,3.1
9.324,-10.8,-1.8,2.6
9.326,-11.1,-2.0,2.1
9.328,-9.8,-1.3,2.0
9.419,-9.2,1.1,3.0
9.421,-9.2,-0.0,2.5
9.423,-9.6,-1.3,2.1
9.424,-10.0,-1.1,1.6
9.519,-9.8,1.0,2.4
9.521,-9.6,2.2,3.2
9.522,-9.2,1.6,2.7
9.524,-9.5,0.0,1.2
9.63,-9.5,-2.8,2.0
9.632,-9.2,-1.3,3.6
9.635,-9.4,-3.1,3.8
9.637,-9.1,-3.6,3.4
9.723,-10.0,-3.1,2.8
9.725,-10.7,-1.7,4.4
9.726,-10.2,-1.6,5.4
9.728,-10.7,-1.9,6.1
9.819,-10.1,-3.4,5.6
9.82,-10.8,-3.1,5.4
9.822,-11.2,-2.2,5.4
9.823,-11.5,-2.0,5.9
9.918,-11.3,-1.9,6.3
9.92,-10.8,-1.5,5.9
9.921,-10.5,-1.5,5.8
10.017,-10.3,-1.9,5.8
10.035,-9.5,-2.0,5.1
10.037,-8.8,-1.3,5.2
10.039,-8.1,-0.7,5.4
10.134,-7.1,-0.8,5.3
10.144,-5.6,-1.3,4.2
10.145,-5.1,-1.3,4.0
10.147,-4.8,-0.6,4.3
10.217,-4.5,-0.1,4.2
10.225,-3.3,0.4,4.0
10.23,-2.8,0.6,4.2
10.318,-2.6,0.7,4.6
10.32,-2.5,0.4,5.1
10.323,-2.8,0.1,5.5
10.33,-2.8,0.1,4.6
10.331,-2.9,0.4,4.0
10.422,-3.8,0.4,4.5
10.425,-7.3,-1.5,7.4
10.427,-8.2,-2.8,7.7
10.429,-8.6,-2.8,7.5
10.517,-9.8,-2.5,7.5
10.52,-11.2,-1.9,7.7
10.528,-11.0,-2.1,7.5
10.53,-10.2,-2.5,8.0
10.621,-9.4,-3.0,8.3
10.625,-8.5,-2.9,8.1
10.627,-9.3,-3.0,6.7
10.629,-9.9,-2.8,6.7
10.717,-9.9,-2.7,7.2
10.721,-8.7,-3.1,7.5
10.723,-8.1,-3.3,7.1
10.732,-8.1,-3.5,6.9
10.821,-8.3,-3.4,6.5
10.829,-8.3,-2.6,6.2
10.831,-7.9,-2.4,5.8
10.833,-7.5,-2.2,5.5
10.917,-7.3,-2.1,5.2
10.92,-7.6,-2.3,4.5
10.927,-8.0,-2.3,4.1
10.928,-8.5,-2.3,3.9
11.017,-8.7,-2.0,3.9
11.02,-9.1,-1.4,3.8
11.026,-10.0,-1.1,2.9
11.028,-10.5,-1.1,3.0
11.123,-10.9,-1.0,3.4
11.134,-10.7,-1.1,4.8
11.146,-9.8,-1.3,5.1
11.147,-8.0,-0.4,5.1
11.218,-6.8,1.0,4.6
11.222,-7.7,2.6,4.6
11.224,-8.6,2.4,4.4
11.225,-8.8,1.5,4.1
11.317,-8.9,0.7,4.0
11.32,-8.0,0.1,4.4
11.322,-7.5,0.1,4.4
11.323,-6.9,0.2,3.9
11.418,-6.8,0.2,3.9
11.421,-7.3,-0.1,4.3
11.422,-7.2,-0.3,4.5
11.427,-7.6,-0.6,4.7
11.517,-8.4,-0.9,4.5
11.534,-10.6,-0.7,4.6
11.535,-10.6,-0.5,4.8
11.537,-10.3,-0.5,4.9
11.616,-11.2,-0.7,4.6
11.62,-13.0,-1.4,4.8
11.621,-14.9,-2.2,4.6
11.717,-14.7,-2.9,4.8
11.718,-12.9,-2.6,5.4
11.723,-8.4,-0.8,5.0
11.729,-7.3,-0.5,4.3
11.817,-7.8,-1.2,3.8
11.819,-9.3,-2.0,3.8
11.822,-10.6,-2.7,3.9
11.824,-9.9,-2.3,3.8
11.892,-8.6,-1.7,3.7
11.897,-7.8,-1.2,3.5
11.914,-7.8,-0.9,2.7
11.915,-8.1,-1.3,2.5
12.015,-8.1,-1.7,2.3
12.016,-8.0,-1.6,2.3
12.054,-7.5,-1.2,2.4
12.123,-7.6,-1.1,2.3
12.125,-8.3,-0.9,1.9
12.126,-9.2,-0.6,1.6
12.13,-12.1,-0.2,2.1
12.137,-13.3,-0.3,2.2
12.217,-13.3,-0.1,2.5
12.218,-13.5,0.5,2.5
12.222,-10.9,-0.1,3.3
12.223,-8.4,0.0,4.5
12.323,-6.3,0.5,5.0
12.336,-5.3,0.9,4.5
12.34,-9.0,1.4,3.3
12.341,-10.3,1.3,3.2
12.416,-10.6,1.2,3.1
12.421,-9.6,1.1,3.0
12.424,-7.3,1.3,3.3
12.429,-7.3,0.9,3.2
12.517,-7.7,-0.0,3.0
12.518,-8.1,-0.6,3.2
12.522,-7.8,-0.8,3.5
12.528,-7.9,-0.9,3.3
12.617,-8.3,-1.0,3.4
12.622,-8.9,-1.2,3.7
12.628,-10.2,-1.5,4.5
12.629,-10.9,-1.7,4.6
12.717,-11.0,-1.8,4.6
12.718,-11.8,-1.8,4.4
12.722,-13.6,-2.0,4.4
12.723,-14.9,-2.1,4.5
12.822,-15.0,-2.1,4.7
12.825,-12.8,-2.0,5.1
12.828,-8.4,-1.7,4.1
12.829,-8.3,-1.8,3.5
12.916,-9.7,-1.9,2.7
12.918,-10.9,-2.0,2.2
12.921,-10.4,-2.0,2.4
12.923,-9.2,-1.4,2.6
13.016,-8.1,-0.9,2.6
13.018,-7.3,-0.3,2.6
13.021,-6.9,0.0,2.2
13.033,-7.0,-0.4,1.9
13.126,-7.3,-0.8,1.6
13.128,-7.3,-1.1,1.6
13.131,-7.9,-1.2,1.6
13.135,-8.7,-1.3,1.4
13.216,-9.4,-1.3,1.3
13.222,-10.0,-1.1,1.4
13.225,-12.4,-0.7,1.7
13.316,-13.0,-0.6,2.1
13.318,-13.7,-0.5,2.2
13.32,-13.5,-0.7,2.2
13.328,-9.3,-1.2,4.2
13.416,-7.2,-1.2,4.4
13.418,-6.3,-1.1,3.8
13.42,-7.5,-0.1,3.4
13.444,-11.5,1.2,3.1
13.516,-12.0,0.8,3.6
13.518,-10.9,0.6,3.8
13.519,-9.1,0.8,4.1
13.526,-6.7,0.7,3.9
13.591,-6.8,0.3,3.7
13.599,-7.5,-0.3,3.4
13.6,-7.9,-1.1,3.2
13.604,-7.8,-2.7,2.7
13.715,-7.8,-2.8,2.7
13.721,-8.4,-2.5,2.8
13.722,-9.3,-2.3,3.2
13.818,-10.6,-2.3,4.1
13.819,-10.6,-1.9,4.4
13.821,-10.2,-1.3,4.5
13.823,-11.5,-0.7,4.1
13.842,-13.5,-0.7,3.5
13.918,-14.4,-1.5,3.3
13.92,-13.5,-2.1,3.8
13.922,-12.2,-2.4,4.0
13.925,-8.6,-2.0,3.1
14.016,-8.9,-1.8,2.5
14.021,-10.3,-1.6,1.8
14.023,-11.8,-1.5,1.4
14.03,-9.9,-0.9,1.4
14.122,-8.7,-0.4,1.4
14.124,-7.7,-0.0,1.6
14.125,-6.9,0.2,1.8
14.128,-7.1,-0.5,1.9
14.216,-7.2,-0.8,1.7
14.218,-7.3,-1.1,1.5
14.229,-7.5,-1.2,1.3
14.234,-8.0,-1.3,1.3
14.317,-8.3,-1.2,1.5
14.319,-8.9,-1.0,1.5
14.327,-9.6,-1.0,1.3
14.33,-11.0,-0.8,1.8
14.416,-12.2,-0.9,2.2
14.418,-12.9,-0.7,2.7
14.42,-14.4,-0.4,2.8
14.431,-13.8,-1.2,3.5
14.521,-11.1,-2.0,4.5
14.523,-8.3,-2.5,4.4
14.525,-6.6,-1.9,3.6
14.533,-9.1,0.1,1.9
14.616,-10.4,0.3,1.8
14.63,-11.0,0.1,1.8
14.64,-10.8,0.3,1.9
14.643,-7.8,0.8,2.5
14.716,-7.0,1.0,2.8
14.718,-6.8,0.8,3.0
14.723,-7.3,0.4,3.0
14.726,-8.2,-1.2,2.7
14.821,-8.3,-1.5,2.6
14.823,-8.3,-1.6,2.6
14.824,-8.3,-1.6,2.5
14.828,-9.0,-1.9,2.7
14.915,-9.5,-1.9,3.3
14.917,-10.0,-1.9,3.5
14.919,-10.0,-1.6,3.5
15.016,-10.1,0.1,3.0
15.028,-11.4,0.6,2.9
15.03,-12.7,0.5,2.8
15.032,-14.0,-0.4,3.0
15.122,-12.7,-2.2,3.8
15.124,-10.7,-2.1,3.7
15.163,-8.9,-1.6,3.1
15.165,-8.3,-1.3,2.6
15.216,-11.2,-2.2,1.8
15.218,-12.3,-2.5,1.4
15.219,-11.6,-2.1,1.1
15.221,-10.6,-1.4,1.0
15.316,-8.5,-0.5,1.1
15.318,-7.8,-0.3,1.3
15.319,-7.9,-0.3,1.5
15.325,-8.1,-0.7,1.5
15.42,-8.1,-1.3,1.2
15.421,-8.1,-1.5,0.9
15.423,-8.0,-1.5,0.9
15.425,-7.9,-1.6,1.0
15.541,-7.9,-1.6,1.4
15.551,-8.5,-1.7,1.5
15.553,-9.0,-1.7,1.6
15.555,-9.4,-1.7,1.6
15.623,-10.6,-0.7,2.9
15.624,-12.3,-0.6,4.2
15.626,-11.7,-2.3,4.3
15.628,-12.2,-2.7,4.2
15.631,-12.6,-1.7,5.0
15.714,-10.4,-1.8,5.0
15.719,-8.5,-1.6,5.0
15.721,-6.9,-1.0,4.6
15.815,-7.3,0.3,2.1
15.817,-9.0,-0.2,2.9
15.818,-10.1,-0.7,3.4
15.82,-11.1,-1.2,3.5
15.916,-10.3,-1.9,3.8
15.917,-9.4,-1.9,3.1
15.919,-8.9,-1.6,2.6
15.927,-8.9,-1.4,2.4
15.991,-8.8,-1.7,2.1
15.998,-8.8,-1.8,2.0
15.999,-8.7,-2.0,1.9
16.001,-8.4,-2.2,1.9
16.15,-8.3,-2.4,2.1
16.152,-8.5,-2.5,2.2
16.153,-8.9,-2.7,2.3
16.235,-9.3,-2.9,2.3
16.238,-10.2,-2.8,2.4
16.24,-10.9,-2.3,2.5
16.241,-10.4,-1.9,2.2
16.243,-10.4,-1.6,1.9
16.321,-11.4,-1.8,1.5
16.323,-10.7,-2.0,2.0
16.325,-9.8,-2.6,2.0
16.326,-9.3,-3.2,1.4
16.416,-9.5,-3.7,-0.5
16.417,-9.4,-3.8,-0.8
16.419,-9.3,-3.8,-0.9
16.421,-9.1,-3.7,-0.9
16.515,-9.4,-2.9,-0.9
16.517,-9.5,-2.6,-0.8
16.528,-9.4,-2.5,-0.9
16.53,-9.4,-2.8,-1.1
16.621,-9.7,-3.3,-2.0
16.623,-9.5,-3.0,-1.9
16.624,-9.5,-2.3,-1.6
16.63,-9.8,-1.7,-1.1
16.717,-10.1,-1.2,0.1
16.719,-10.0,-1.5,0.7
16.72,-9.8,-1.9,0.8
16.722,-9.6,-2.1,0.7
16.817,-10.8,-1.6,0.1
16.819,-11.2,-1.4,-0.2
16.827,-10.9,-1.2,-0.4
16.828,-10.0,-1.0,0.0
16.917,-9.2,-0.8,1.0
16.93,-9.6,-1.0,1.3
16.932,-10.1,-1.1,1.3
16.933,-10.5,-1.2,1.2
17.018,-10.6,-0.7,0.6
17.019,-10.4,-0.3,0.4
17.021,-10.2,0.1,0.4
17.023,-10.1,0.2,0.6
17.148,-9.8,0.3,1.3
17.149,-9.7,0.1,1.5
17.151,-9.6,-0.3,1.5
17.152,-9.4,-0.6,1.3
17.217,-9.6,-1.0,1.0
17.219,-9.7,-1.0,1.1
17.22,-9.7,-0.8,1.4
17.222,-10.0,-0.5,1.4
17.326,-10.6,-0.5,1.5
17.328,-10.6,-0.4,1.5
17.338,-10.2,-0.2,1.5
17.34,-9.9,0.1,1.5
17.42,-9.6,0.0,1.2
17.422,-9.8,-0.2,1.0
17.424,-10.0,-0.2,0.8
17.425,-10.1,-0.4,0.8
17.517,-9.3,-0.8,1.0
17.519,-9.0,-1.0,1.1
17.52,-8.7,-1.3,1.1
17.522,-8.6,-1.5,1.0
17.617,-9.0,-1.4,1.0
17.619,-9.2,-1.5,0.9
17.62,-9.6,-1.5,0.9
17.622,-9.9,-1.5,0.9
17.717,-10.2,-1.4,1.3
17.719,-10.0,-1.4,1.6
17.72,-9.8,-1.4,1.8
17.722,-9.7,-1.1,1.9
17.819,-10.0,-1.1,2.0
17.821,-9.9,-1.2,2.0
17.822,-9.9,-1.3,2.0
17.824,-9.7,-1.5,2.0
17.917,-9.4,-1.7,2.1
17.918,-9.3,-1.5,2.1
17.92,-9.4,-1.4,2.1
17.922,-9.4,-1.3,2.1
18.016,-9.7,-1.3,2.0
18.018,-9.7,-1.3,2.0
18.02,-9.6,-1.1,2.0
18.041,-9.5,-1.0,2.0
18.129,-9.4,-0.5,2.1
18.134,-9.4,-0.5,2.1
18.136,-9.4,-0.7,1.8
18.215,-9.7,-0.9,1.8
18.218,-11.3,-1.4,1.6
18.22,-11.5,-1.5,1.8
18.221,-12.1,-1.2,1.5
18.315,-12.3,-0.8,1.4
18.318,-12.5,-0.8,1.1
18.324,-11.6,-0.9,1.4
18.326,-10.3,-0.7,1.8
18.415,-8.7,-0.3,1.9
18.42,-7.4,0.8,1.5
18.422,-8.2,1.1,1.4
18.434,-9.1,0.9,1.4
18.515,-10.1,0.5,1.5
18.518,-10.0,-0.4,1.9
18.52,-9.2,-0.3,2.0
18.522,-8.5,-0.0,2.1
18.615,-8.1,0.3,2.1
18.621,-8.0,0.3,1.9
18.624,-8.1,-0.1,2.0
18.626,-8.3,-0.3,2.2
18.715,-8.4,-0.3,2.4
18.723,-8.7,-0.4,2.6
18.724,-8.8,-0.7,2.7
18.726,-9.1,-1.1,2.9
18.816,-9.7,-1.4,3.1
18.819,-10.3,-1.1,3.1
18.83,-11.6,-0.7,2.8
18.832,-12.5,-0.4,2.5
18.915,-13.4,-0.5,2.2
18.918,-13.6,-1.3,2.2
18.92,-12.2,-1.4,2.4
18.921,-10.1,-1.3,2.6
19.014,-8.3,-1.0,2.7
19.017,-8.1,-1.3,2.0
19.019,-9.2,-1.3,1.8
19.02,-10.4,-1.4,1.7
19.121,-11.1,-1.2,1.5
19.124,-9.3,0.0,1.6
19.126,-8.6,0.3,1.7
19.128,-8.3,0.2,1.7
19.214,-8.2,-0.3,1.7
19.238,-8.2,-1.5,1.7
19.24,-8.2,-1.6,1.6
19.242,-8.4,-1.4,1.6
19.315,-8.3,-1.1,1.6
19.321,-8.3,-0.7,1.8
19.323,-8.7,-0.5,1.7
19.325,-9.3,-0.3,1.6
19.414,-9.9,-0.5,1.6
19.418,-10.6,-1.1,1.8
19.419,-10.9,-1.4,2.1
19.421,-11.7,-1.4,2.3
19.514,-12.3,-1.2,2.5
19.518,-14.1,-1.2,2.3
19.519,-12.5,-0.8,2.8
19.521,-10.0,-0.1,3.5
19.619,-7.9,0.6,3.7
19.632,-6.8,1.6,2.9
19.635,-8.1,1.5,2.4
19.637,-9.5,1.0,1.9
19.715,-10.5,0.3,1.8
19.722,-9.9,-0.0,2.2
19.724,-8.9,-0.0,2.5
19.725,-8.3,-0.2,2.6
19.815,-8.2,-0.4,2.6
19.818,-8.5,-0.8,2.2
19.825,-8.6,-1.1,2.2
19.827,-8.7,-1.3,2.3
19.914,-8.2,-1.3,2.5
19.917,-8.0,-1.2,2.9
19.919,-8.2,-1.3,3.2
20.015,-8.8,-1.6,3.3
20.026,-9.6,-1.6,3.4
20.032,-10.3,-0.5,3.3
20.034,-11.0,0.3,3.1
20.121,-12.2,0.5,2.7
20.133,-12.8,-0.0,2.5
20.137,-14.1,-1.4,2.4
20.138,-13.0,-2.1,2.9
20.215,-11.2,-2.3,3.2
20.219,-9.0,-2.1,3.1
20.228,-7.6,-1.7,2.4
20.229,-8.4,-1.5,1.9
20.339,-9.9,-1.6,1.3
20.345,-11.0,-1.8,1.0
20.349,-9.8,-0.7,1.2
20.351,-8.6,0.1,1.4
20.442,-8.1,0.6,1.7
20.444,-7.8,0.5,1.9
20.447,-8.1,-1.0,2.0
20.454,-8.5,-1.9,1.9
20.455,-8.4,-2.1,1.7
20.515,-8.4,-1.9,1.4
20.521,-8.2,-1.3,1.3
20.523,-8.5,-1.3,1.2
20.615,-9.0,-1.4,1.2
20.617,-9.4,-1.0,0.9
20.62,-10.5,-0.7,1.8
20.622,-11.0,-0.6,2.9
20.718,-12.2,-0.9,3.5
20.72,-13.3,-1.1,3.5
20.723,-14.3,-1.1,2.8
20.735,-12.5,-0.6,3.2
20.815,-9.7,-0.2,3.6
20.82,-7.6,-0.2,3.3
20.824,-7.8,-0.1,2.1
20.826,-9.0,0.0,2.1
20.916,-10.5,0.2,2.5
20.917,-11.0,0.4,2.5
20.921,-8.8,0.6,2.6
20.922,-8.1,0.4,2.4
21.014,-7.8,-0.1,2.3
21.016,-7.9,-0.6,2.1
21.019,-8.4,-1.3,1.9
21.021,-8.4,-1.4,1.9
21.121,-8.4,-1.4,2.0
21.122,-8.3,-1.4,2.1
21.135,-8.4,-1.4,2.4
21.137,-8.7,-1.5,2.8
21.216,-9.2,-1.7,3.2
21.218,-9.6,-1.7,3.5
21.223,-10.3,-0.9,3.3
21.224,-10.4,-0.2,3.1
21.314,-11.3,0.2,2.9
21.316,-11.8,0.3,2.8
21.324,-13.6,-0.6,2.9
21.326,-12.8,-1.5,3.3
21.42,-11.6,-2.0,3.6
21.421,-10.1,-2.3,3.6
21.425,-8.3,-2.0,2.3
21.426,-9.2,-1.8,1.8
21.514,-10.8,-1.9,1.4
21.521,-11.6,-1.8,1.0
21.536,-9.7,-0.9,0.9
21.614,-8.5,-0.2,1.1
21.616,-7.7,0.0,1.5
21.618,-7.2,-0.1,1.7
21.625,-7.4,-1.2,1.9
21.714,-7.7,-1.7,1.7
21.716,-7.8,-1.9,1.4
21.718,-8.1,-1.9,1.1
21.725,-8.2,-1.3,1.3
21.814,-8.6,-1.2,1.1
21.821,-9.1,-1.0,0.8
21.822,-9.5,-0.5,1.1
21.826,-10.3,-0.5,2.3
21.914,-11.1,-0.3,2.9
21.916,-12.7,-0.9,3.0
21.928,-13.5,-1.5,3.4
21.939,-14.6,-1.6,3.5
22.014,-12.4,-1.5,3.9
22.016,-9.4,-1.4,3.8
22.018,-7.1,-1.1,3.1
22.021,-8.3,0.1,1.5
22.114,-9.7,0.3,1.3
22.122,-11.0,0.2,1.8
22.127,-11.0,0.3,2.2
22.131,-8.2,0.5,2.6
22.214,-7.4,0.4,2.6
22.216,-7.0,0.3,2.5
22.219,-7.2,0.2,2.4
22.222,-8.4,-0.6,2.2
22.313,-8.6,-1.0,2.1
22.326,-8.5,-1.4,2.0
22.328,-8.1,-1.5,2.0
22.333,-8.4,-2.1,2.7
22.415,-9.4,-2.3,3.0
22.418,-10.2,-2.3,3.3
22.42,-10.5,-1.7,3.4
22.424,-11.5,0.5,3.1
22.514,-12.6,0.9,2.9
22.516,-13.6,0.7,2.9
22.517,-14.8,-0.3,2.8
22.521,-12.6,-1.7,3.3
22.621,-10.6,-1.7,3.3
22.622,-8.6,-1.4,2.9
22.624,-7.8,-1.3,2.4
22.627,-9.9,-1.7,1.6
22.714,-11.4,-2.0,1.1
22.72,-11.0,-1.9,0.8
22.722,-9.8,-1.3,0.8
22.725,-8.0,-0.2,1.0
22.814,-7.5,0.1,1.3
22.816,-7.5,-0.1,1.6
22.817,-7.9,-0.8,1.8
22.821,-8.1,-1.6,1.6
22.914,-8.0,-1.3,1.4
22.918,-8.2,-0.9,1.3
22.919,-8.3,-0.8,1.5
22.927,-8.6,-1.0,1.3
23.014,-9.1,-0.9,1.2
23.016,-9.6,-0.6,1.4
23.017,-10.2,-0.7,1.9
23.061,-10.4,-1.0,2.9
23.139,-11.7,-1.2,2.8
23.144,-12.9,-1.2,2.8
23.146,-14.6,-1.5,2.4
23.214,-13.4,-1.7,3.4
23.216,-10.4,-1.4,4.1
23.221,-7.6,-1.1,3.8
23.222,-6.2,-0.4,3.0
23.314,-8.9,0.3,1.8
23.316,-10.1,-0.1,1.7
23.317,-10.6,-0.4,1.9
23.319,-10.4,-0.1,2.1
23.414,-8.0,0.6,2.9
23.415,-7.5,0.7,3.2
23.421,-7.7,0.3,3.2
23.423,-8.1,-0.4,2.9
23.514,-8.6,-1.3,2.4
23.516,-8.8,-1.5,2.2
23.517,-8.8,-1.4,2.0
23.519,-8.9,-1.3,2.1
23.614,-9.0,-1.2,3.1
23.615,-9.3,-1.5,3.5
23.617,-9.5,-1.7,3.7
23.619,-9.6,-1.4,3.5
23.714,-10.7,0.1,2.6
23.715,-11.8,0.3,2.2
23.717,-12.2,0.1,2.3
23.719,-13.3,-0.7,2.2
23.814,-12.9,-2.0,2.5
23.816,-11.2,-2.4,2.6
23.817,-8.9,-2.5,2.5
23.839,-7.7,-2.5,2.7
23.917,-8.3,-3.2,2.2
23.919,-10.3,-4.3,1.7
23.921,-10.9,-5.3,1.5
23.922,-10.8,-6.2,2.1
24.013,-9.3,-6.1,2.1
24.015,-8.7,-5.9,2.5
24.016,-9.1,-5.6,2.9
24.048,-10.1,-5.4,2.9
24.114,-10.4,-9.0,2.6
24.122,-10.0,-8.5,3.0
24.124,-9.8,-7.1,3.4
24.125,-9.7,-6.3,3.9
24.214,-9.3,-8.0,4.2
24.215,-9.3,-7.5,5.0
24.227,-9.1,-7.2,5.2
24.23,-9.1,-6.8,5.6
24.314,-8.4,-5.2,4.9
24.315,-8.3,-5.2,4.9
24.317,-8.4,-4.3,5.2
24.319,-8.3,-3.3,5.4
24.414,-7.8,-1.3,4.9
24.415,-6.9,-1.1,4.1
24.42,-6.0,-1.0,3.8
24.422,-5.7,-0.9,4.1
24.514,-7.0,-0.3,6.4
24.516,-6.7,0.4,6.3
24.518,-6.1,1.0,5.7
24.519,-5.4,1.5,5.4
24.614,-5.4,3.0,6.9
24.625,-5.0,3.1,7.8
24.627,-4.7,2.4,8.1
24.63,-4.4,1.8,7.7
24.717,-4.7,1.4,7.4
24.719,-5.1,2.1,7.7
24.721,-5.3,3.3,8.2
24.722,-5.5,4.0,8.5
24.82,-5.0,2.9,7.8
24.823,-4.9,2.7,8.0
24.825,-5.2,2.9,8.8
24.826,-5.4,3.5,9.3
24.944,-4.2,3.2,8.7
24.946,-4.0,2.9,8.6
24.948,-3.9,2.6,8.8
24.949,-3.5,2.1,9.3
25.027,-3.6,1.7,8.6
25.029,-3.7,2.3,8.3
25.031,-3.5,2.8,8.5
25.032,-3.3,2.8,8.7
25.035,-2.9,2.3,8.9
25.112,-2.8,2.8,8.9
25.114,-2.8,3.4,6.9
25.122,-3.4,3.6,6.9
25.215,-3.5,4.3,9.4
25.217,-3.0,3.4,9.3
25.219,-3.2,2.8,8.8
25.22,-3.1,3.0,9.0
25.317,-2.5,3.9,9.8
25.318,-2.8,4.0,9.7
25.32,-2.4,3.5,9.0
25.322,-1.1,0.9,7.9
25.415,-3.3,4.2,9.0
25.417,-3.1,5.0,9.5
25.418,-2.4,4.4,9.3
25.421,-2.1,3.6,9.3
25.515,-2.7,2.6,9.1
25.516,-2.9,2.8,9.1
25.518,-2.4,2.9,9.3
25.519,-2.0,2.8,9.3
25.614,-3.1,2.3,8.2
25.616,-2.7,2.8,8.1
25.617,-2.5,3.0,7.7
25.619,-1.3,4.5,8.4
25.715,-1.2,5.0,9.0
25.717,-1.5,5.3,8.3
25.719,-2.2,5.2,7.6
25.731,-1.1,5.2,7.5
25.815,-1.5,5.4,8.5
25.817,-1.0,4.6,8.2
25.818,-1.8,4.9,7.9
25.82,-1.5,4.0,7.8
25.94,-1.0,4.3,8.7
25.942,-2.2,4.0,9.4
25.944,-1.9,4.3,9.7
25.945,-2.5,4.1,9.0
26.016,-3.2,4.1,8.7
26.018,-2.8,3.5,9.3
26.019,-2.2,4.6,9.9
26.021,-3.3,3.7,9.2
26.112,-2.2,2.4,8.5
26.114,-2.8,2.0,8.8
26.132,-4.0,2.1,9.3
26.134,-3.4,2.9,9.4
26.232,-3.1,2.6,8.6
26.234,-3.1,2.6,8.8
26.239,-3.1,3.6,9.4
26.24,-3.4,2.9,9.3
26.315,-3.1,2.4,9.1
26.317,-2.8,0.8,9.0
26.319,-2.8,1.0,8.9
26.324,-1.9,1.4,8.7
26.415,-2.7,1.2,8.1
26.416,-2.3,1.5,8.6
26.419,-2.0,1.4,8.4
26.42,-2.2,2.0,8.2
26.514,-1.4,7.5,11.7
26.526,0.5,3.0,9.1
26.528,-0.6,2.5,8.6
26.613,0.3,4.8,9.7
26.616,1.3,4.3,8.5
26.618,-2.6,3.1,9.0
26.62,-2.5,3.8,10.1
26.713,-1.8,3.2,10.3
26.716,1.3,4.2,10.0
26.718,-3.2,2.3,8.9
26.72,-4.2,2.3,9.5
26.813,-2.9,1.8,9.0
26.816,-3.2,2.7,9.7
26.818,-4.6,1.5,8.7
26.824,-5.3,1.6,8.6
26.913,-0.0,1.6,9.8
26.926,-4.2,1.6,8.8
26.927,-2.7,2.8,10.0
26.931,-2.0,3.7,10.4
27.017,-2.8,2.8,8.9
27.02,-2.4,2.8,9.2
27.022,-2.0,2.4,9.8
27.025,-2.1,2.8,10.0
27.113,-1.9,1.6,9.1
27.177,-3.1,1.6,9.4
27.179,-3.0,1.2,8.5
27.181,-2.8,1.1,9.4
27.255,-1.3,1.3,9.4
27.284,-0.3,1.6,10.2
27.292,-2.0,1.0,9.5
27.294,-2.5,-0.7,7.9
27.345,-3.6,2.2,9.6
27.358,-2.3,1.5,9.7
27.36,-3.8,1.4,9.0
27.43,-3.8,2.2,9.4
27.432,-2.0,1.7,9.5
27.436,-1.0,-2.1,9.8
27.437,-0.2,-0.4,10.0
27.439,-0.5,5.3,10.5
27.513,-1.8,4.0,10.3
27.516,-1.5,2.0,9.7
27.518,-1.3,1.4,9.6
27.519,-0.9,1.5,9.4
27.613,-0.9,1.9,9.2
27.616,-1.0,1.8,9.5
27.618,-1.4,2.5,9.8
27.619,-1.4,1.7,9.6
27.713,-0.8,1.9,9.5
27.716,-1.4,2.3,9.6
27.718,-1.0,2.4,9.8
27.719,-1.2,2.5,9.8
27.815,-0.6,2.0,9.7
27.823,-0.9,1.8,9.6
27.825,-0.9,2.0,9.7
27.826,-1.0,2.0,9.8
27.892,-0.9,2.0,9.7
27.895,-0.8,1.8,9.4
27.902,-1.2,1.8,8.8
27.904,-0.9,2.1,9.6
