vertical_Accel_x,vertical_Accel_y,vertical_Accel_z,accel_time_list
1.396,-6.904,5.873,0.0
1.131,-7.669,5.42,0.006
0.804,-7.696,6.827,0.008
1.302,-7.898,6.414,0.009
0.412,-7.188,5.382,0.128
0.98,-7.52,5.963,0.13
0.849,-7.351,5.843,0.131
1.057,-7.543,6.598,0.133
0.833,-7.467,6.533,0.259
1.012,-7.588,6.082,0.261
1.153,-7.747,5.871,0.262
1.047,-7.753,6.229,0.264
0.855,-7.745,6.284,0.331
0.951,-7.749,6.257,0.333
0.988,-7.712,6.018,0.335
1.012,-7.588,6.082,0.336
0.943,-7.557,6.202,0.427
0.947,-7.653,6.229,0.428
0.947,-7.653,6.229,0.43
1.02,-7.78,6.137,0.431
0.943,-7.557,6.202,0.527
0.912,-7.488,6.082,0.528
0.912,-7.488,6.082,0.53
1.004,-7.396,6.027,0.535
0.969,-6.531,5.78,0.629
0.476,-6.924,5.935,0.63
1.057,-7.043,5.798,0.632
0.431,-6.769,6.12,0.634
0.684,-6.616,5.89,0.732
0.559,-6.341,5.412,0.734
0.516,-5.984,5.21,0.736
0.496,-5.504,5.073,0.746
-0.192,-5.9,2.556,0.826
-0.4,-5.8,2.2,0.828
-0.592,-5.3,2.256,0.83
-0.728,-5.1,2.504,0.831
-0.948,-4.964,2.6,0.928
-1.44,-5.42,2.3,0.931
-2.416,-5.288,1.0,0.932
-3.68,-5.24,-1.3,0.934
-3.316,-4.169,-7.392,1.028
-3.64,-3.519,-8.626,1.036
-4.146,-3.108,-9.111,1.038
-3.037,-2.029,-10.526,1.045
-1.757,1.877,-12.814,1.103
-2.368,1.599,-14.392,1.105
-2.327,1.573,-16.482,1.118
-2.225,1.241,-19.131,1.126
5.463,6.477,-18.963,1.249
4.99,7.559,-16.89,1.251
4.015,7.212,-15.315,1.253
1.1,1.308,-14.444,1.328
2.5,-3.848,-10.336,1.331
2.4,-3.42,-9.94,1.337
2.3,-2.692,-9.944,1.339
2.1,-1.636,-10.252,1.34
4.704,1.296,-9.727,1.433
4.696,1.804,-9.773,1.435
4.722,2.178,-9.551,1.436
4.806,2.594,-9.541,1.438
2.815,3.412,-10.315,1.528
2.562,3.063,-10.162,1.538
2.348,2.279,-10.148,1.544
1.966,1.719,-10.166,1.546
1.233,0.767,-11.133,1.628
0.825,0.754,-10.925,1.63
0.739,0.852,-11.039,1.631
0.669,1.062,-11.069,1.633
1.045,-0.384,-10.445,1.727
1.088,-0.182,-10.088,1.732
1.035,0.047,-9.735,1.734
1.027,0.092,-9.227,1.735
0.336,1.322,-8.904,1.828
0.513,1.233,-8.927,1.83
0.578,1.011,-9.322,1.832
0.464,0.878,-9.696,1.833
0.112,-1.193,-10.079,1.939
-0.032,-1.247,-9.821,1.95
0.205,-1.142,-9.163,1.952
0.427,-1.219,-8.668,1.954
-0.231,-0.773,-8.071,2.028
-0.02,-0.8,-8.14,2.036
0.06,-0.7,-8.08,2.046
0.173,-0.582,-7.927,2.048
0.238,-0.545,-7.742,2.128
0.318,-0.445,-7.682,2.13
0.413,-0.282,-7.747,2.138
0.395,-0.236,-7.965,2.14
-0.023,0.508,-8.569,2.257
-0.2,0.7,-9.1,2.259
-0.131,0.877,-9.492,2.26
-0.208,0.869,-10.223,2.262
2.592,2.487,-11.292,2.356
2.624,2.639,-12.324,2.358
2.913,2.484,-13.113,2.364
3.096,2.343,-13.196,2.366
1.693,2.099,-12.607,2.428
1.813,1.816,-14.687,2.43
1.907,1.901,-14.193,2.432
2.116,2.074,-11.084,2.433
2.262,2.337,-12.938,2.532
2.413,2.116,-11.087,2.534
2.053,1.965,-8.947,2.535
1.111,2.244,-8.189,2.626
0.283,2.34,-8.817,2.63
0.469,2.438,-9.031,2.631
0.221,2.703,-9.779,2.638
1.1,4.2,-9.3,2.726
1.0,3.1,-9.5,2.73
0.9,3.0,-9.9,2.735
1.653,0.235,-10.153,2.737
0.831,0.838,-10.331,2.826
0.484,1.274,-9.784,2.833
0.336,1.709,-9.036,2.835
0.354,1.849,-8.754,2.836
-1.846,1.015,-8.738,2.929
-1.408,0.969,-8.223,2.932
-1.231,1.077,-8.092,2.934
-1.323,1.108,-8.069,2.935
-0.791,2.183,-8.014,3.026
-0.49,2.212,-7.795,3.041
-0.44,2.08,-7.8,3.042
-0.244,1.921,-7.638,3.053
0.329,0.624,-7.767,3.126
0.592,0.336,-8.374,3.13
0.864,0.279,-8.625,3.131
1.28,0.207,-8.476,3.133
2.694,0.259,-8.094,3.227
2.527,-0.108,-9.127,3.23
2.667,-0.133,-10.167,3.236
3.014,-0.104,-10.814,3.238
2.6,0.72,-11.46,3.326
2.1,0.712,-12.916,3.33
1.9,0.972,-13.096,3.332
1.5,0.892,-12.656,3.334
1.5,0.276,-14.768,3.425
1.7,-0.128,-13.296,3.43
2.7,-0.108,-9.656,3.439
2.4,0.32,-9.26,3.441
1.658,2.594,-9.142,3.526
1.04,4.034,-9.86,3.529
0.867,3.767,-10.833,3.531
0.911,2.744,-10.889,3.532
0.9,3.6,-9.6,3.626
0.7,1.9,-9.0,3.629
0.7,1.5,-8.7,3.631
0.9,1.5,-8.8,3.632
1.152,0.321,-9.352,3.726
1.365,1.105,-9.365,3.733
1.42,1.483,-9.52,3.735
1.349,1.693,-9.549,3.737
0.584,2.956,-8.922,3.826
0.629,2.649,-8.025,3.843
0.787,2.294,-7.653,3.844
0.991,2.032,-7.184,3.846
0.153,0.927,-7.367,3.926
0.565,1.404,-7.952,3.929
0.564,1.339,-8.262,3.931
0.815,1.436,-8.348,3.932
2.047,1.267,-8.493,4.026
1.951,1.144,-8.769,4.036
1.82,1.0,-9.24,4.041
1.747,0.567,-9.893,4.045
3.153,-1.329,-10.053,4.126
2.9,-0.4,-10.1,4.129
3.018,0.024,-10.018,4.132
3.075,0.622,-9.775,4.139
3.035,2.195,-9.335,4.225
3.036,2.209,-9.236,4.237
2.71,2.041,-9.31,4.238
1.741,2.28,-10.041,4.326
2.014,2.498,-13.914,4.327
2.875,3.546,-14.275,4.334
2.826,2.668,-11.926,4.336
1.902,2.028,-9.502,4.426
1.399,1.486,-7.399,4.427
0.202,0.828,-8.202,4.435
0.235,0.995,-9.135,4.437
0.869,1.162,-9.469,4.53
1.642,1.594,-9.942,4.532
2.0,2.7,-9.7,4.535
1.513,2.884,-8.913,4.537
0.864,2.591,-8.764,4.628
0.423,2.325,-8.923,4.638
0.479,2.003,-8.979,4.641
0.79,2.059,-8.99,4.649
1.169,0.58,-9.269,4.726
1.137,0.461,-9.337,4.728
1.057,0.598,-8.957,4.734
1.006,0.441,-8.806,4.736
1.198,0.386,-8.798,4.826
1.382,0.276,-8.982,4.828
1.631,0.02,-9.231,4.831
1.7,-0.1,-9.2,4.836
1.7,-0.1,-9.2,4.936
1.773,-0.192,-9.073,4.938
1.727,-0.008,-9.227,4.941
1.79,0.131,-9.79,4.943
1.969,0.38,-9.869,5.036
2.0,0.5,-9.8,5.038
1.929,0.206,-10.129,5.042
1.775,0.022,-10.175,5.043
1.527,1.482,-10.127,5.125
1.326,1.468,-10.426,5.127
1.0,0.212,-11.416,5.135
1.2,0.696,-10.828,5.136
1.4,0.792,-10.856,5.226
1.4,0.94,-11.42,5.227
1.3,0.644,-10.292,5.231
1.2,0.152,-9.836,5.232
0.9,-0.26,-9.82,5.326
0.8,-0.508,-9.956,5.327
0.7,-0.496,-10.272,5.331
0.7,-0.264,-10.548,5.34
0.8,-0.36,-10.52,5.426
1.0,-0.276,-10.232,5.427
1.2,-0.136,-9.752,5.434
1.3,-0.12,-9.34,5.437
1.738,0.937,-8.738,5.527
1.643,1.008,-8.343,5.528
2.877,0.475,-7.977,5.538
3.926,0.768,-7.726,5.54
4.508,1.313,-7.608,5.626
4.441,1.58,-7.241,5.628
3.534,3.681,-7.734,5.631
3.552,5.221,-7.652,5.633
3.84,6.38,-5.9,5.726
3.308,7.056,-5.5,5.732
3.66,6.12,-4.8,5.747
4.424,5.168,-4.8,5.753
4.556,4.192,-5.2,5.826
4.444,3.808,-5.5,5.833
3.82,5.24,-5.3,5.837
4.256,4.592,-4.6,5.839
4.469,2.88,-5.169,5.925
4.671,2.594,-4.471,5.928
4.884,3.09,-3.684,5.934
4.985,0.557,-4.566,6.04
4.657,0.221,-3.217,6.042
4.106,1.647,-1.557,6.044
2.787,-0.194,1.815,6.047
3.406,0.506,2.359,6.126
1.659,1.059,3.088,6.127
-0.598,-1.031,4.82,6.135
0.904,-6.063,3.539,6.148
-6.542,-1.825,-0.889,6.259
-13.347,1.458,-3.196,6.262
-20.745,2.064,-9.16,6.264
-19.966,-18.898,-27.155,6.268
1.914,-47.911,-28.023,6.326
22.867,-14.473,-59.147,6.327
21.276,-17.021,-40.242,6.329
-13.71,22.628,43.655,6.332
7.068,-5.51,-7.735,6.43
1.701,-5.676,-54.502,6.432
-7.67,-29.538,0.139,6.435
6.888,-11.41,-16.475,6.438
12.767,-9.967,-13.033,6.526
3.267,-10.167,-1.033,6.528
0.3,-7.5,-2.1,6.537
1.767,-1.367,-9.933,6.541
0.9,-3.0,-6.9,6.625
0.267,-0.367,-7.733,6.627
-0.133,-0.867,-5.733,6.629
2.033,-0.133,-7.367,6.635
3.0,2.9,-8.4,6.725
2.498,-1.039,-8.337,6.726
2.812,-2.767,-8.98,6.733
2.153,-1.392,-9.345,6.736
1.909,-2.307,-9.318,6.825
3.258,-2.744,-10.217,6.827
3.06,-4.27,-10.719,6.833
1.548,-5.411,-10.197,6.836
1.308,-4.406,-10.917,6.927
1.732,-4.349,-10.047,6.939
2.019,-3.964,-9.292,6.941
1.334,-3.175,-7.526,6.944
0.939,-2.739,-6.588,7.038
2.947,-1.447,-7.381,7.04
6.311,-2.511,-8.024,7.041
3.661,0.998,-8.539,7.045
-0.083,-1.985,-7.112,7.126
0.549,-4.435,-5.691,7.128
3.826,-4.488,-8.041,7.13
2.903,-0.331,-9.219,7.133
3.351,-0.265,-9.509,7.225
2.52,-1.116,-10.331,7.227
3.367,-3.84,-10.049,7.229
4.449,-6.035,-10.491,7.246
3.461,-5.768,-10.338,7.343
2.092,-5.007,-10.044,7.355
0.75,-5.355,-9.336,7.357
1.8,-3.6,-7.7,7.36
2.72,-1.5,-7.96,7.425
3.816,-0.12,-8.588,7.427
3.692,0.56,-10.256,7.429
3.124,-3.193,-8.303,7.437
0.398,-4.364,-4.794,7.525
1.025,-5.366,-5.174,7.527
1.077,-5.97,-8.132,7.536
-1.07,-1.674,-9.291,7.54
-2.699,-6.102,-9.954,7.626
1.0,-8.2,-9.6,7.628
1.348,-8.695,-8.314,7.629
5.189,-5.578,-8.401,7.725
4.906,-4.412,-7.627,7.727
2.549,-4.497,-6.268,7.729
1.812,-5.524,-6.153,7.73
1.499,-4.998,-8.946,7.826
0.557,-3.915,-8.958,7.827
0.426,-4.051,-7.716,7.829
1.792,-4.084,-7.864,7.831
3.645,-5.689,-8.85,7.925
3.21,-6.42,-8.245,7.927
2.545,-6.189,-7.75,7.929
2.425,-5.65,-7.961,7.93
2.026,-4.651,-8.216,8.026
2.194,-4.688,-8.073,8.039
2.47,-4.641,-7.966,8.041
2.446,-4.591,-8.205,8.042
0.119,-4.802,-8.375,8.125
0.269,-5.028,-8.246,8.128
0.358,-4.906,-8.524,8.139
0.192,-4.82,-8.647,8.143
0.325,-5.187,-8.514,8.227
0.441,-5.346,-8.619,8.229
0.58,-5.151,-8.669,8.231
0.464,-4.991,-8.564,8.232
0.149,-5.026,-8.572,8.325
-0.029,-4.923,-8.26,8.327
0.093,-4.868,-8.304,8.328
0.215,-4.812,-8.348,8.33
0.34,-4.699,-8.763,8.424
0.314,-4.765,-8.692,8.426
0.209,-5.027,-8.409,8.428
0.253,-5.169,-8.241,8.437
0.308,-4.98,-8.753,8.525
0.266,-5.186,-8.677,8.527
0.325,-5.187,-8.514,8.529
0.384,-4.84,-8.595,8.53
0.235,-4.962,-8.48,8.625
0.119,-4.802,-8.375,8.627
0.241,-4.746,-8.419,8.629
0.252,-4.821,-8.485,8.63
0.252,-4.821,-8.485,8.725
0.245,-5.036,-8.545,8.727
0.358,-4.906,-8.524,8.728
0.384,-4.84,-8.595,8.73
0.516,-4.86,-8.705,8.825
0.41,-4.775,-8.666,8.827
0.41,-4.775,-8.666,8.839
0.47,-4.776,-8.503,8.851
0.4,-4.7,-8.6,8.925
0.41,-4.775,-8.666,8.927
0.426,-4.634,-8.671,8.928
0.304,-4.69,-8.626,8.933
0.368,-4.981,-8.59,9.025
0.358,-4.906,-8.524,9.042
0.288,-4.83,-8.621,9.043
0.288,-4.83,-8.621,9.045
0.48,-4.851,-8.569,9.125
0.48,-4.851,-8.569,9.127
0.516,-4.86,-8.705,9.128
0.532,-4.719,-8.71,9.13
0.205,-4.737,-8.283,9.224
0.143,-5.141,-7.832,9.236
0.365,-5.038,-8.22,9.239
0.711,-4.722,-8.222,9.241
1.542,-4.094,-9.876,9.348
1.517,-3.307,-9.862,9.353
0.886,-6.235,-12.108,9.354
-0.675,-3.887,-11.214,9.356
10.637,-9.269,-13.747,9.427
11.859,-8.167,-11.237,9.429
4.502,-6.382,-15.708,9.43
5.941,-11.533,-10.263,9.432
1.527,-3.556,-1.036,9.526
6.975,-6.827,-5.274,9.528
7.148,-3.671,-11.038,9.53
9.936,6.528,-17.682,9.531
-6.4,-3.4,-2.7,9.647
-3.4,-1.4,-4.8,9.649
1.9,-2.3,-2.3,9.652
4.2,-4.3,2.2,9.654
-1.6,-4.194,8.97,9.72
-3.8,-6.151,1.472,9.722
-4.2,-8.56,-7.511,9.724
-9.0,-3.768,-8.138,9.725
-8.6,-4.019,-5.049,9.824
-11.7,-18.399,10.638,9.826
-23.3,-31.106,24.509,9.828
-7.9,-20.104,20.147,9.926
0.9,-0.637,5.539,9.929
3.6,1.366,-2.446,9.931
10.1,-2.436,-6.822,9.934
7.9,-8.99,0.044,9.936
-4.282,-10.586,11.674,10.029
-6.074,-11.529,15.36,10.036
-5.538,-3.7,12.708,10.038
-0.914,-3.443,1.371,10.04
3.12,-9.271,4.07,10.126
1.092,-9.7,8.862,10.127
-2.573,-9.071,8.609,10.129
-3.107,-7.143,6.51,10.13
0.645,-7.657,4.482,10.226
-0.416,-8.457,4.275,10.228
0.893,-10.943,1.81,10.229
0.256,-9.286,3.066,10.231
2.251,-8.071,8.224,10.33
0.651,-6.871,9.324,10.332
0.959,-8.214,6.611,10.334
0.414,-8.257,5.229,10.346
-2.606,-6.747,4.357,10.433
-0.026,-8.187,5.53,10.435
-0.087,-8.206,6.785,10.437
5.1,-10.2,7.4,10.438
-0.274,-7.813,5.77,10.529
-0.891,-7.904,5.523,10.53
-0.536,-7.932,6.226,10.535
0.37,-7.785,7.268,10.537
0.062,-8.081,6.245,10.614
-0.249,-7.826,6.44,10.616
-0.196,-7.702,6.262,10.618
-0.906,-7.147,6.657,10.619
1.428,-7.888,5.67,10.708
1.098,-7.909,5.695,10.71
0.665,-8.042,5.461,10.824
1.618,-8.127,6.396,10.826
2.977,-7.69,5.894,10.829
3.843,-7.128,8.208,10.831
-1.662,-7.719,3.855,10.926
0.26,-8.33,5.964,10.928
-1.268,-7.666,4.513,10.931
-2.813,-7.794,6.315,10.936
-0.304,-8.998,5.838,10.938
-0.419,-8.14,6.172,11.024
-0.487,-8.006,5.685,11.038
-0.832,-7.634,6.287,11.04
-0.564,-7.768,6.274,11.042
0.438,-8.819,5.455,11.125
-1.306,-7.647,5.857,11.134
-0.906,-7.947,5.657,11.146
-0.153,-7.823,6.079,11.148
0.077,-8.038,6.111,11.224
-0.474,-7.813,6.27,11.228
-0.315,-8.143,6.034,11.229
-0.44,-7.93,5.864,11.262
-0.498,-7.851,6.181,11.327
-0.496,-7.602,5.962,11.336
0.409,-8.104,6.723,11.337
0.04,-9.87,8.136,11.339
-3.049,-6.226,6.04,11.424
-1.713,-7.094,5.615,11.428
-0.862,-7.419,5.755,11.429
0.155,-8.328,6.102,11.431
-0.57,-7.515,5.832,11.525
-0.889,-7.955,6.104,11.538
-0.549,-8.726,7.24,11.54
-0.715,-8.543,6.534,11.542
-0.181,-8.36,6.428,11.628
-0.245,-7.428,4.702,11.631
-0.566,-8.217,3.894,11.633
-0.551,-8.474,4.56,11.634
0.475,-8.414,5.188,11.724
1.373,-9.029,6.191,11.731
0.626,-8.429,5.96,11.732
-0.303,-7.571,4.955,11.737
-0.384,-7.843,3.425,11.829
2.58,-8.829,6.23,11.833
0.96,-9.057,4.459,11.834
-0.392,-8.2,5.038,11.836
-1.211,-7.245,5.996,11.9
-0.336,-8.932,6.826,11.914
-0.63,-7.985,7.168,11.916
-0.715,-7.543,5.434,11.918
