gyro_time_list,gyro_x_list,gyro_y_list,gyro_z_list
0.0,1.5,0.6,0.4
0.002,0.1,0.3,-0.4
0.004,-0.3,0.1,-0.1
0.006,-0.8,-0.0,0.5
0.117,-0.2,0.2,0.2
0.121,-0.3,0.1,0.3
0.123,-0.2,0.1,0.3
0.125,-0.4,0.0,0.3
0.205,-0.4,0.0,0.3
0.207,-0.5,0.0,0.2
0.208,-0.4,0.0,0.1
0.21,-0.3,0.0,0.1
0.317,-0.3,-0.0,0.0
0.32,-0.4,-0.1,0.0
0.322,-0.5,-0.1,0.1
0.324,-0.7,-0.2,0.1
0.395,-1.7,-0.3,0.4
0.397,-2.2,-0.3,0.5
0.398,-2.6,-0.3,0.7
0.4,-2.9,-0.3,0.9
0.502,-1.9,-0.0,1.3
0.503,-1.0,0.5,1.3
0.505,-1.0,0.8,1.5
0.506,-1.9,1.0,1.7
0.614,-2.6,0.9,2.3
0.615,-2.7,1.0,2.5
0.617,-3.7,1.0,2.7
0.618,-5.0,0.9,3.0
0.722,-4.7,0.8,3.4
0.724,-5.0,0.9,3.5
0.726,-5.8,0.8,3.6
0.739,-5.6,0.7,3.6
0.81,-5.8,1.0,3.1
0.812,-6.2,1.0,2.9
0.817,-6.0,0.8,2.8
0.819,-5.5,0.7,2.6
0.884,-3.5,0.5,2.3
0.886,-2.3,0.5,2.1
0.887,-1.6,0.4,1.9
0.889,-1.4,0.2,1.8
1.007,-1.7,0.0,1.7
1.008,-1.8,-0.1,1.7
1.011,-1.5,-0.1,1.6
1.12,-1.0,-0.1,1.4
1.124,0.1,0.0,0.9
1.131,1.0,0.2,0.6
1.142,1.4,0.2,0.2
1.144,1.0,0.1,-0.1
1.209,-0.2,-0.1,-0.7
1.211,-0.1,-0.0,-1.0
1.215,-0.1,-0.1,-1.3
1.217,-0.4,-0.1,-1.6
1.306,-0.5,-0.1,-1.7
1.308,-0.5,-0.0,-1.7
1.309,-0.2,-0.0,-1.7
1.311,0.3,0.0,-1.6
1.407,0.5,0.0,-1.4
1.408,0.3,-0.0,-1.3
1.41,0.1,-0.0,-1.1
1.411,0.0,0.1,-1.0
1.525,0.3,0.1,-0.6
1.538,0.5,0.1,-0.4
1.54,0.5,0.2,-0.2
1.541,0.4,0.1,-0.1
1.606,-0.2,0.1,0.3
1.607,-0.2,0.1,0.4
1.613,-0.1,0.0,0.6
1.615,0.0,0.0,0.7
1.711,0.2,0.1,0.8
1.715,0.3,0.1,0.8
1.717,0.3,0.1,0.8
1.719,0.2,0.1,0.8
1.845,0.2,0.1,0.6
1.85,0.2,0.1,0.5
1.852,0.1,0.1,0.5
1.854,0.1,0.0,0.4
1.94,-0.0,0.0,0.2
1.941,-0.0,0.0,0.1
1.943,-0.0,0.0,-0.0
1.944,-0.0,0.0,-0.1
2.009,-0.1,-0.0,-0.1
2.011,-0.0,-0.0,-0.1
2.012,-0.0,-0.0,-0.1
2.019,0.0,-0.0,-0.1
2.108,0.1,-0.0,0.0
2.11,0.1,-0.1,0.1
2.111,-0.0,-0.1,0.1
2.113,-0.0,-0.1,0.1
2.21,-0.0,-0.2,0.1
2.211,-0.1,-0.2,0.0
2.217,-0.2,-0.2,0.0
2.218,-0.3,-0.2,0.0
2.32,-0.3,-0.2,0.0
2.321,-0.3,-0.1,0.0
2.323,-0.4,-0.1,0.1
2.324,-0.5,-0.1,0.2
2.41,-0.7,-0.1,0.3
2.412,-0.7,-0.1,0.4
2.413,-0.7,-0.0,0.4
2.415,-0.6,-0.0,0.5
2.505,-0.2,0.1,0.6
2.507,-0.2,0.1,0.7
2.509,-0.2,0.1,0.7
2.516,-0.1,0.1,0.8
2.616,-0.1,0.1,0.8
2.617,-0.1,0.0,0.7
2.619,-0.1,0.0,0.6
2.632,-0.1,0.0,0.5
2.71,-0.2,-0.0,0.1
2.711,-0.3,0.0,-0.1
2.713,-0.3,0.1,-0.2
2.714,-0.2,0.2,-0.3
2.805,0.1,-0.0,-0.3
2.821,0.1,0.0,-0.5
2.822,0.5,0.1,-0.6
2.908,0.9,0.1,-0.8
2.912,1.7,0.0,-1.0
2.913,2.4,0.1,-1.0
2.915,1.8,0.1,-0.9
2.998,0.6,0.0,-0.9
3.001,0.4,-0.3,-0.6
3.003,0.3,-0.5,-0.6
3.015,0.9,-0.5,-0.6
3.101,1.2,-0.4,-0.8
3.104,0.9,-0.3,-1.1
3.11,0.4,-0.3,-1.2
3.211,-0.0,-0.2,-1.3
3.213,-0.2,-0.2,-1.4
3.216,-0.1,-0.1,-1.4
3.218,-0.0,-0.1,-1.3
3.219,0.0,-0.0,-1.1
3.304,-0.0,-0.0,-0.9
3.307,-0.4,-0.0,-0.2
3.308,-0.7,-0.1,0.2
3.31,-0.9,-0.1,0.5
3.423,-1.0,-0.0,1.0
3.426,-1.3,-0.2,1.7
3.438,-1.3,-0.2,1.9
3.439,-1.1,-0.3,1.9
3.508,-0.8,-0.2,1.8
3.515,-0.0,-0.1,1.3
3.516,0.1,-0.1,1.1
3.518,-0.2,-0.1,1.0
3.609,-0.5,-0.2,0.9
3.613,-0.9,-0.1,0.7
3.614,-0.8,-0.1,0.6
3.619,-0.6,-0.0,0.5
3.702,-0.6,0.0,0.5
3.705,-0.3,0.1,0.4
3.706,-0.3,0.1,0.4
3.708,-0.3,0.1,0.4
3.834,-0.3,0.2,0.4
3.854,-0.1,0.2,0.5
3.855,-0.0,0.1,0.6
3.857,0.1,0.1,0.6
3.904,0.3,0.1,0.6
3.907,0.7,0.3,0.3
3.909,0.9,0.0,0.2
3.921,0.9,-0.2,-0.0
4.004,0.7,-0.2,-0.5
4.007,1.2,-0.0,-1.5
4.009,1.4,-0.0,-1.8
4.015,1.5,-0.1,-1.9
4.104,1.5,-0.2,-1.9
4.107,1.0,-0.5,-1.8
4.109,0.8,-0.6,-1.8
4.11,0.7,-0.6,-1.8
4.215,0.6,-0.5,-1.9
4.23,0.5,-0.4,-2.0
4.242,0.5,-0.3,-1.9
4.244,0.4,-0.3,-1.8
4.308,0.2,-0.3,-1.6
4.313,0.0,-0.2,-1.2
4.315,-0.1,-0.1,-0.9
4.317,-0.2,-0.1,-0.5
4.403,-0.5,-0.1,-0.0
4.406,-1.0,0.2,1.3
4.408,-1.3,0.1,2.0
4.504,-1.3,0.1,2.5
4.506,-0.8,0.1,2.7
4.509,0.5,0.4,2.7
4.511,0.9,0.5,2.5
4.623,1.2,0.6,2.2
4.634,1.2,0.6,2.0
4.637,-0.6,0.5,1.8
4.639,-1.2,0.4,1.8
4.707,-1.1,0.3,1.8
4.709,-0.6,0.3,1.8
4.715,0.6,0.4,1.5
4.717,1.0,0.3,1.3
4.812,1.1,0.3,1.1
4.814,0.9,0.2,0.8
4.817,-0.2,-0.0,0.4
4.822,-0.9,-0.2,0.4
4.913,-1.3,-0.3,0.3
4.914,-1.3,-0.4,0.1
4.918,0.5,-0.6,-0.5
4.919,1.0,-1.0,-0.8
5.007,0.4,-1.3,-0.8
5.009,-1.3,-1.6,-0.7
5.014,0.9,-1.1,-0.6
5.016,2.5,-0.9,-0.4
5.108,2.3,-1.2,-0.5
5.11,2.3,-1.1,-1.4
5.113,4.1,-1.2,-3.4
5.115,4.6,-1.3,-3.8
5.215,5.1,-1.3,-3.6
5.217,5.5,-1.3,-2.9
5.22,4.7,-0.6,-0.9
5.222,4.2,0.1,-0.0
5.304,3.0,-0.4,-0.6
5.306,0.2,-1.6,-2.4
5.309,-3.1,-3.1,-2.0
5.345,-1.8,0.5,-2.0
5.403,-3.7,-1.7,-0.9
5.405,-2.9,-1.9,-1.9
5.414,-3.1,-3.3,-6.2
5.503,-2.7,-1.8,-6.2
5.505,-1.8,1.0,-3.0
5.507,-0.8,1.0,-2.6
5.516,1.1,-1.6,-4.4
5.613,1.4,-0.4,-2.5
5.615,1.4,0.6,-0.6
5.616,2.4,-0.3,-1.2
5.624,1.7,-0.5,0.2
5.626,2.0,0.1,0.8
5.719,3.3,0.5,1.1
5.722,4.1,0.5,0.9
5.736,-0.3,-0.4,0.1
5.738,-0.3,-0.3,-0.2
5.834,-0.1,0.0,-0.2
5.839,0.2,0.1,-0.1
5.842,0.2,-0.3,-0.6
5.844,-0.0,-0.2,-0.3
5.907,-0.6,-0.0,-0.1
5.909,-0.3,-0.1,-0.2
5.916,0.7,-0.1,-0.1
5.917,0.9,-0.0,0.1
6.003,1.3,-0.1,0.2
6.005,1.4,-0.1,0.3
6.008,0.2,-0.0,0.4
6.01,0.2,-0.0,0.3
6.114,0.5,0.0,0.2
6.116,0.3,0.0,0.2
6.13,-0.0,-0.0,0.0
6.204,-0.1,-0.1,-0.1
6.212,-0.2,-0.1,-0.1
6.213,-0.3,-0.1,-0.1
6.217,-0.1,0.0,-0.2
6.308,0.0,0.1,-0.1
6.31,-0.0,0.1,-0.1
6.311,-0.4,0.1,-0.0
6.315,-0.4,0.0,-0.1
6.407,-0.2,0.2,-0.2
6.409,0.1,0.2,-0.4
6.411,0.3,0.1,-0.4
6.414,-0.4,-0.1,-0.1
6.521,-0.4,0.1,0.1
6.523,-0.2,0.2,0.2
6.537,0.0,0.2,0.2
6.545,0.3,-0.0,0.1
6.607,0.2,-0.1,-0.0
6.609,0.2,-0.2,-0.1
6.61,0.2,-0.1,-0.0
6.613,0.1,-0.0,-0.0
6.71,0.0,-0.0,-0.0
6.712,-0.0,-0.0,-0.0
6.713,-0.0,-0.0,-0.0
6.717,-0.0,0.0,0.0
6.803,-0.1,0.0,0.1
6.81,-0.2,0.1,0.1
6.812,-0.1,0.1,0.1
6.815,-0.0,0.0,-0.0
6.92,-0.0,0.0,-0.0
6.931,0.0,0.0,-0.0
6.933,0.0,0.0,-0.0
6.936,0.0,-0.0,-0.0
7.003,0.0,0.0,-0.0
7.004,0.0,0.0,0.0
7.006,0.0,-0.0,0.0
7.009,0.0,-0.0,0.0
7.109,0.0,-0.0,0.0
7.11,0.0,-0.0,0.0
7.112,0.0,-0.0,-0.0
7.115,0.0,0.0,-0.0
7.203,0.0,0.0,-0.0
7.205,-0.0,-0.0,-0.0
7.206,-0.0,-0.0,-0.0
7.209,-0.0,0.0,0.0
7.312,-0.0,0.0,0.0
7.314,-0.0,0.0,0.0
7.315,-0.0,0.0,0.0
7.326,0.0,-0.0,-0.0
7.403,0.0,-0.0,-0.0
7.404,0.0,-0.0,-0.0
7.41,0.0,-0.0,-0.0
7.413,0.0,-0.0,-0.0
7.503,0.0,-0.0,-0.0
7.504,-0.0,0.0,-0.0
7.506,-0.0,0.0,0.0
7.509,-0.0,0.0,0.0
7.614,-0.0,0.0,0.0
7.616,-0.0,0.0,0.0
7.619,-0.0,-0.0,-0.0
7.639,0.0,-0.0,-0.0
7.705,0.0,-0.0,-0.0
7.706,0.0,-0.0,-0.0
7.708,0.0,-0.0,-0.0
7.808,0.0,-0.0,0.0
7.811,-0.0,0.0,0.0
7.813,-0.0,0.0,0.0
7.815,0.0,0.0,0.0
7.932,0.0,-0.0,0.0
7.933,-0.0,0.0,-0.0
7.935,-0.0,0.0,-0.0
7.937,0.0,0.0,-0.0
8.021,0.0,-0.0,-0.0
8.022,-0.0,-0.0,-0.0
8.024,0.0,0.0,0.0
8.025,-0.0,0.0,0.0
8.043,-0.0,0.0,0.0
8.044,0.0,-0.0,0.0
8.105,-0.0,0.0,0.0
8.107,-0.0,-0.0,-0.0
8.207,0.0,-0.0,-0.0
8.208,0.0,-0.0,-0.0
8.21,0.0,0.0,-0.0
8.211,-0.0,0.0,0.0
8.304,-0.0,-0.0,-0.0
8.306,-0.0,-0.0,-0.0
8.307,0.0,0.0,0.0
8.309,-0.0,0.0,0.0
8.413,0.0,-0.0,0.0
8.416,0.0,-0.0,0.0
8.418,0.0,-0.0,0.0
8.43,0.0,0.0,-0.0
8.509,0.0,0.0,-0.0
8.51,0.0,0.0,0.0
8.512,0.0,-0.0,-0.0
8.514,0.0,-0.0,-0.0
8.601,0.0,0.0,0.0
8.603,0.0,0.0,0.0
8.604,0.0,0.0,0.0
8.606,-0.0,0.0,0.0
8.702,0.0,-0.0,-0.0
8.704,0.0,-0.0,-0.0
8.705,0.0,-0.0,-0.0
8.711,-0.0,-0.0,-0.0
8.819,0.0,0.0,0.0
8.821,0.0,0.0,-0.0
8.832,-0.0,0.0,0.0
8.834,0.0,0.0,-0.0
8.902,0.0,0.0,-0.0
8.904,-0.0,-0.0,-0.0
8.905,-0.0,-0.0,-0.0
8.907,-0.0,0.0,-0.0
9.002,-0.0,0.0,0.0
9.008,0.0,0.0,0.0
9.01,0.0,-0.0,0.0
9.012,0.0,-0.0,0.0
9.107,0.0,0.0,0.0
9.108,0.0,-0.0,0.0
9.11,0.0,0.0,-0.0
9.111,0.0,-0.0,0.0
9.22,0.0,0.0,0.0
9.231,0.0,0.0,-0.0
9.233,-0.0,0.0,0.0
9.234,-0.0,0.0,0.0
9.31,-0.0,-0.0,-0.0
9.311,-0.0,-0.0,-0.0
9.313,0.0,-0.0,-0.0
9.314,0.0,-0.0,-0.0
9.402,0.0,-0.0,-0.0
9.403,0.0,-0.0,0.0
9.411,0.0,-0.0,0.0
9.412,0.0,-0.0,0.0
9.508,-0.0,-0.0,-0.0
9.51,0.0,-0.0,-0.0
9.511,0.0,-0.0,0.0
9.513,0.0,-0.0,-0.0
9.658,-0.0,-0.0,-0.0
9.66,-0.0,-0.0,-0.0
9.662,0.0,0.0,-0.0
9.663,0.0,0.0,-0.0
9.749,0.0,-0.0,-0.0
9.75,0.0,0.0,-0.0
9.752,0.0,0.0,0.0
9.753,0.0,-0.0,-0.0
9.756,-0.0,-0.0,-0.0
9.809,0.0,0.0,-0.0
9.811,0.0,0.0,0.0
9.814,-0.0,0.0,0.0
9.914,0.0,0.0,0.0
9.917,0.0,-0.0,0.0
9.918,0.0,0.0,-0.0
9.928,0.0,0.0,0.0
10.008,0.0,-0.0,-0.0
10.013,-0.0,-0.0,-0.0
10.015,0.0,-0.0,-0.0
10.016,-0.0,-0.0,-0.0
10.109,-0.0,0.0,0.0
10.111,-0.0,0.0,0.0
10.112,-0.0,0.0,0.0
10.117,-0.0,0.0,-0.0
10.207,0.0,-0.0,-0.0
10.208,0.0,0.0,-0.0
10.209,0.0,0.0,0.0
10.211,-0.0,0.0,0.0
10.314,0.0,0.0,0.0
10.322,0.0,0.0,0.0
10.325,0.0,0.0,-0.0
10.336,-0.0,0.0,-0.0
10.408,0.0,0.0,0.0
10.409,-0.0,0.0,0.0
10.41,-0.0,0.0,0.0
10.416,0.0,-0.0,-0.0
10.504,-0.0,-0.0,-0.0
10.506,0.0,0.0,-0.0
10.507,-0.0,0.0,-0.0
10.509,-0.0,0.0,0.0
10.608,-0.0,0.0,-0.0
10.611,0.0,0.0,-0.0
10.612,0.0,0.0,-0.0
10.614,-0.0,0.0,-0.0
10.727,-0.0,-0.0,-0.0
10.729,-0.0,-0.0,0.0
10.74,-0.0,-0.0,0.0
10.741,0.0,-0.0,0.0
10.805,-0.0,-0.0,-0.0
10.806,0.0,0.0,-0.0
10.807,0.0,0.0,0.0
10.812,0.0,-0.0,-0.0
10.903,0.0,-0.0,-0.0
10.911,0.0,0.0,-0.0
10.912,-0.0,0.0,0.0
10.914,-0.0,0.0,0.0
11.008,-0.0,0.0,0.0
11.01,-0.0,0.0,0.0
11.011,0.0,0.0,-0.0
11.012,0.0,-0.0,0.0
11.122,0.0,0.0,-0.0
11.135,0.0,0.0,0.0
11.137,0.0,0.0,-0.0
11.202,0.0,-0.0,0.0
11.204,-0.0,0.0,0.0
11.21,0.0,0.0,-0.0
11.212,-0.0,0.0,-0.0
11.302,0.0,0.0,-0.0
11.305,-0.0,0.0,-0.0
11.306,0.0,-0.0,-0.0
11.308,0.0,-0.0,-0.0
11.402,0.0,-0.0,0.0
11.405,0.0,0.0,0.0
11.406,0.0,0.0,-0.0
11.408,-0.0,-0.0,-0.0
11.521,-0.0,-0.0,-0.0
11.533,-0.0,-0.0,-0.0
11.535,0.0,0.0,-0.0
11.536,-0.0,0.0,-0.0
11.607,-0.0,0.0,0.0
11.612,0.0,0.0,0.0
11.614,0.0,0.0,0.0
11.615,0.0,0.0,0.0
11.705,0.0,0.0,0.0
11.708,0.0,-0.0,-0.0
11.71,0.0,0.0,-0.0
11.714,0.0,0.0,-0.0
11.802,0.0,0.0,0.0
11.805,0.0,0.0,0.0
11.807,-0.0,0.0,0.0
11.808,-0.0,0.0,0.0
11.916,-0.0,0.0,-0.0
11.937,-0.0,0.0,-0.0
11.938,0.0,0.0,-0.0
11.94,0.0,0.0,-0.0
12.009,0.0,0.0,-0.0
12.013,0.0,0.0,-0.0
12.014,0.0,-0.0,-0.0
12.015,-0.0,0.0,-0.0
12.11,0.0,0.0,0.0
12.114,0.0,0.0,0.0
12.115,0.0,0.0,0.0
12.117,0.1,0.0,0.1
12.202,0.2,0.0,0.1
12.205,0.3,0.1,0.1
12.206,0.2,0.1,0.1
12.208,0.3,0.1,0.1
12.321,0.5,0.1,0.1
12.324,0.7,0.1,0.1
12.326,0.7,0.1,0.2
12.327,1.0,0.2,0.2
12.406,1.3,0.5,0.4
12.411,2.2,1.0,0.4
12.412,1.5,0.8,0.3
12.414,1.6,0.5,0.0
12.501,1.8,0.4,-0.0
12.504,1.7,0.1,0.0
12.51,1.4,-0.0,0.0
12.512,1.5,-0.1,0.0
12.619,1.2,-0.1,-0.0
12.63,0.2,-0.1,-0.1
12.632,-0.0,-0.2,-0.1
12.643,-0.1,-0.2,-0.1
12.702,-0.2,-0.2,-0.1
12.709,-0.2,-0.1,-0.1
12.712,-0.3,-0.1,-0.1
12.806,-0.4,-0.1,-0.1
12.808,0.1,0.1,-0.1
12.853,-0.2,0.0,0.0
12.855,-0.1,-0.0,0.0
12.93,0.1,-0.0,0.0
12.932,0.1,-0.0,-0.0
12.939,-0.0,0.0,-0.0
12.941,-0.0,0.0,-0.0
13.009,-0.1,-0.0,-0.0
13.011,-1.3,-0.7,0.2
13.024,0.6,0.2,-0.1
13.111,0.3,-0.2,0.1
13.113,-0.1,-0.0,-0.1
13.115,-0.2,0.0,-0.0
13.118,0.1,-0.0,0.0
13.119,-0.0,-0.0,0.0
13.206,-0.1,0.0,-0.0
13.208,-0.0,-0.0,-0.0
13.211,-0.0,-0.0,-0.0
13.213,-0.1,-0.0,-0.0
13.31,-0.0,-0.0,-0.0
13.312,0.0,-0.0,-0.0
13.315,-0.0,-0.0,-0.0
13.316,-0.0,-0.0,-0.0
13.422,-0.0,-0.0,-0.0
13.423,-0.1,-0.0,-0.0
13.44,0.0,-0.0,-0.0
13.442,0.0,-0.0,-0.0
13.505,-0.0,-0.0,-0.0
13.507,-0.1,-0.0,-0.0
13.51,-0.0,-0.0,-0.0
13.515,0.0,0.0,-0.0
13.578,-0.0,-0.0,-0.0
13.58,-0.0,-0.0,-0.0
13.583,0.1,-0.0,-0.0
13.585,0.0,-0.0,0.0
