vertical_Accel_x,vertical_Accel_y,vertical_Accel_z,accel_time_list
4.112,12.053,6.6,0.0
3.735,7.659,4.6,0.002
1.353,11.488,0.1,0.005
2.588,8.747,2.6,0.007
2.294,9.724,1.8,0.101
2.616,9.404,2.167,0.102
2.902,8.725,2.633,0.104
2.714,9.078,2.233,0.106
2.753,9.288,2.3,0.201
2.798,9.275,2.167,0.207
2.765,8.841,2.5,0.209
2.855,8.814,2.533,0.21
2.759,9.065,2.7,0.301
2.759,9.065,2.7,0.303
2.708,9.302,2.433,0.304
2.575,9.269,2.467,0.306
2.618,9.329,2.4,0.401
2.625,9.031,2.433,0.402
2.763,8.916,2.567,0.404
2.761,8.99,2.333,0.406
2.718,8.929,2.1,0.501
2.72,8.855,2.033,0.503
2.588,8.747,2.3,0.504
2.637,8.584,2.333,0.51
2.494,8.924,2.1,0.606
2.449,8.937,2.233,0.609
2.455,8.714,2.633,0.611
2.498,8.775,2.567,0.613
2.233,8.633,2.267,0.695
2.192,8.498,1.967,0.697
2.106,8.376,1.5,0.698
1.765,7.741,1.0,0.708
-0.135,6.788,-0.261,0.774
-0.692,5.873,-0.533,0.775
-1.065,4.512,-0.339,0.777
-1.763,3.231,0.253,0.901
-4.7,-2.66,3.12,0.907
-2.632,-5.84,6.945,0.909
-2.466,-3.736,6.904,0.91
-4.089,-1.345,8.668,1.002
-4.994,-0.723,10.534,1.005
-4.066,0.219,10.729,1.012
-5.117,-0.82,10.807,1.014
-5.44,-1.857,9.574,1.016
-4.286,-2.143,11.171,1.103
-6.194,-2.333,12.831,1.109
-7.612,-4.135,15.339,1.119
-8.033,-7.659,19.937,1.12
9.926,-16.533,16.379,1.202
3.545,-7.984,15.245,1.204
2.29,-6.969,13.09,1.209
6.161,-6.389,10.666,1.211
9.885,-1.71,8.33,1.302
7.262,-2.403,8.91,1.304
4.527,-3.951,8.052,1.305
2.126,-7.464,5.171,1.307
0.837,-11.353,2.431,1.404
-0.496,-12.163,3.084,1.411
0.637,-11.769,3.853,1.412
2.208,-10.827,4.267,1.414
4.886,-7.456,7.482,1.502
4.591,-6.834,7.612,1.512
3.744,-6.324,7.327,1.514
2.801,-6.196,6.886,1.521
0.481,-7.537,7.63,1.606
0.233,-8.233,7.967,1.608
-0.119,-8.837,8.33,1.61
-0.211,-9.122,8.978,1.611
-0.662,-7.061,12.764,1.701
-3.194,-6.243,12.353,1.706
-2.415,-4.934,11.343,1.708
-2.498,-4.881,11.951,1.71
-6.317,-7.953,13.391,1.802
-4.534,-7.806,10.483,1.803
-0.751,-6.56,7.274,1.805
1.811,-6.344,4.589,1.807
1.489,-5.256,3.711,1.909
0.4,-5.24,2.82,1.911
-0.544,-5.322,2.244,1.913
-1.2,-5.04,2.22,1.914
-1.086,-5.241,3.188,2.002
-1.177,-5.551,4.295,2.003
-0.737,-5.708,5.218,2.005
-1.826,-5.164,5.893,2.012
-0.356,-8.058,6.096,2.102
-0.122,-7.891,6.262,2.103
0.02,-7.602,4.789,2.109
1.586,-6.863,5.18,2.111
1.722,-8.116,4.145,2.206
1.508,-8.978,3.625,2.208
1.378,-9.784,4.555,2.21
1.835,-10.953,5.865,2.211
4.096,-12.123,5.05,2.301
3.745,-12.132,6.219,2.303
2.596,-12.537,8.016,2.312
3.337,-12.469,7.853,2.313
3.839,-13.751,8.745,2.402
3.527,-14.261,8.894,2.403
3.555,-11.604,7.18,2.405
2.998,-8.418,5.108,2.407
1.719,-4.863,4.57,2.501
1.074,-5.352,5.281,2.502
0.107,-6.485,5.848,2.504
0.59,-5.565,7.999,2.6
1.533,-5.773,9.753,2.608
1.905,-6.308,9.37,2.61
1.786,-6.977,9.589,2.611
-0.37,-6.392,11.231,2.7
-3.335,-4.015,10.475,2.707
-3.256,-3.173,9.264,2.709
-3.282,-2.487,8.435,2.71
-3.194,-2.233,8.064,2.8
-3.96,-3.836,7.071,2.806
-3.626,-4.117,6.934,2.808
-3.401,-4.489,7.078,2.81
-3.742,-5.143,7.585,2.9
-4.178,-5.34,8.379,2.904
-5.49,-6.009,9.318,2.906
-6.602,-7.378,10.356,2.908
-2.809,-8.27,9.426,3.0
1.943,-3.619,6.158,3.008
1.506,-3.398,4.364,3.009
-0.032,-3.577,3.77,3.019
-0.396,-4.651,4.216,3.102
-0.016,-5.098,7.235,3.105
-0.013,-6.286,8.847,3.107
-0.177,-7.04,9.793,3.109
0.467,-7.033,9.667,3.2
1.508,-7.501,8.532,3.203
0.604,-9.339,5.963,3.21
0.314,-9.237,4.72,3.211
0.936,-9.284,2.633,3.3
1.688,-10.17,3.451,3.303
2.669,-11.186,4.004,3.304
2.471,-11.457,5.814,3.306
1.881,-11.702,4.444,3.4
1.357,-10.694,5.069,3.407
1.671,-11.023,5.126,3.417
2.057,-11.474,4.609,3.419
3.961,-12.435,1.783,3.5
4.743,-14.039,1.53,3.507
4.665,-12.709,2.896,3.508
4.213,-11.522,1.039,3.51
2.033,-13.307,0.853,3.6
1.119,-14.158,2.036,3.604
4.758,-11.85,3.943,3.605
4.548,-11.915,3.982,3.607
4.373,-11.779,6.975,3.7
3.014,-13.537,7.92,3.708
0.994,-11.857,12.347,3.71
0.615,-12.666,12.957,3.711
-1.205,-9.335,14.636,3.8
-5.944,-7.076,16.591,3.816
-12.327,-2.392,15.667,3.818
-12.157,-0.829,13.214,3.819
-13.214,4.761,2.65,3.9
-8.783,-1.431,-18.497,3.903
-6.136,-2.42,-34.369,3.905
21.0,-7.331,-26.954,3.907
22.842,-9.849,-4.966,4.0
-1.154,5.999,-11.855,4.006
5.489,2.809,-7.302,4.008
-0.891,-4.098,-10.689,4.01
-5.408,-1.062,-10.9,4.102
-23.692,-18.538,-2.6,4.106
-30.792,-27.238,-11.5,4.107
-7.14,-9.982,41.244,4.113
-5.983,-17.261,15.065,4.2
-24.626,18.791,32.252,4.217
-22.374,-2.591,36.648,4.219
-15.387,-7.896,43.874,4.227
-12.079,-12.106,34.86,4.3
-20.862,-3.691,28.887,4.304
18.802,10.689,-37.434,4.305
-1.061,4.473,-51.425,4.4
5.818,2.118,-15.276,4.401
10.183,-8.082,48.496,4.409
16.677,-8.953,5.921,4.411
-0.659,5.66,4.649,4.532
-4.557,-2.489,7.473,4.533
2.166,-4.209,1.822,4.537
0.546,-8.738,2.315,4.538
4.2,-7.728,8.996,4.6
-0.6,-3.388,14.116,4.61
-2.4,5.628,15.704,4.614
-2.288,0.59,24.082,4.702
-4.985,-4.481,21.416,4.707
-11.219,-1.768,19.771,4.709
-15.909,-1.363,9.954,4.712
-8.386,1.366,3.338,4.714
1.972,-4.15,-0.765,4.801
3.713,-5.698,-2.64,4.803
1.902,3.931,-5.837,4.806
-0.957,-0.517,0.988,4.808
2.259,-2.347,-1.993,4.9
-0.379,3.823,-6.604,4.901
-4.886,11.689,-7.768,4.905
25.691,-3.593,-13.355,4.906
33.5,-10.4,22.0,4.999
37.578,-18.378,34.289,5.001
2.666,-3.929,-0.274,5.004
3.739,-2.758,-1.924,5.006
14.252,-4.996,-3.183,5.101
-2.796,1.109,0.235,5.103
1.935,4.47,-0.922,5.106
1.579,1.553,2.332,5.108
-6.226,0.916,18.789,5.202
0.237,-21.732,30.997,5.203
-2.564,-7.543,10.185,5.207
-1.519,-2.325,4.913,5.208
-0.476,-3.135,2.792,5.3
0.02,-5.569,3.771,5.303
1.049,-6.07,5.784,5.307
0.76,-5.961,6.058,5.316
0.292,-4.47,9.245,5.4
-0.057,-5.774,12.04,5.402
0.631,-4.937,10.986,5.406
0.582,-4.236,9.281,5.407
-0.197,-4.594,7.971,5.502
-0.562,-5.124,7.119,5.503
-0.838,-6.176,7.281,5.511
-0.875,-6.15,6.952,5.512
0.017,-5.968,6.998,5.6
-0.036,-5.957,7.215,5.601
-0.123,-5.909,8.436,5.605
-0.064,-5.243,8.185,5.606
-0.036,-4.657,8.115,5.7
0.192,-4.47,8.345,5.706
0.285,-4.94,9.591,5.719
0.225,-5.098,9.953,5.721
0.16,-5.242,9.438,5.806
0.089,-4.955,8.668,5.808
-0.108,-4.97,7.745,5.811
-0.092,-5.23,7.855,5.899
-0.166,-5.636,7.996,5.903
-0.085,-5.66,8.109,5.906
-0.085,-5.36,7.909,5.909
-0.004,-5.385,8.023,6.007
0.121,-5.383,8.375,6.01
0.238,-5.251,8.674,6.012
0.028,-4.813,8.83,6.015
0.14,-4.758,8.762,6.1
0.036,-4.943,8.885,6.101
0.043,-5.074,8.94,6.107
-0.006,-5.177,8.334,6.12
-0.034,-5.164,8.004,6.2
0.011,-5.345,7.932,6.202
-0.019,-5.425,8.113,6.204
-0.019,-5.425,8.113,6.207
-0.026,-5.294,8.058,6.3
0.032,-5.228,8.208,6.301
-0.066,-5.036,8.496,6.303
0.036,-4.943,8.885,6.306
0.14,-5.058,8.962,6.399
0.177,-5.109,8.836,6.401
0.096,-5.085,8.723,6.403
0.032,-5.228,8.208,6.406
0.04,-5.358,8.262,6.5
-0.072,-5.413,8.33,6.502
-0.042,-5.334,8.149,6.512
0.047,-5.189,8.117,6.515
0.098,-5.292,8.411,6.599
0.023,-5.191,8.664,6.601
0.074,-4.994,8.758,6.603
-0.023,-5.009,8.736,6.606
0.096,-5.085,8.723,6.7
0.038,-5.151,8.574,6.702
0.009,-5.138,8.243,6.709
0.017,-5.268,8.298,6.713
0.002,-5.308,8.389,6.8
0.04,-5.358,8.262,6.806
0.032,-5.228,8.208,6.808
0.091,-5.162,8.357,6.811
0.038,-5.151,8.574,6.899
0.0,-5.1,8.7,6.911
-0.008,-4.97,8.645,6.913
0.015,-5.06,8.609,6.918
0.038,-5.151,8.574,7.006
-0.006,-5.177,8.334,7.008
0.025,-5.098,8.153,7.009
0.002,-5.308,8.389,7.012
0.002,-5.308,8.389,7.099
0.098,-5.292,8.411,7.101
0.009,-5.138,8.243,7.103
0.053,-5.111,8.483,7.106
0.096,-5.085,8.723,7.2
0.058,-5.034,8.849,7.203
0.015,-5.06,8.609,7.206
0.083,-5.032,8.302,7.21
0.009,-5.138,8.243,7.299
0.009,-5.138,8.243,7.301
-0.006,-5.177,8.334,7.306
0.098,-5.292,8.411,7.31
0.009,-5.138,8.243,7.399
0.106,-5.123,8.266,7.401
0.075,-5.202,8.447,7.405
-0.008,-4.97,8.645,7.413
-0.023,-5.009,8.736,7.499
0.015,-5.06,8.609,7.5
0.075,-5.202,8.447,7.509
0.009,-5.138,8.243,7.599
-0.006,-5.177,8.334,7.601
-0.021,-5.217,8.425,7.602
0.017,-5.268,8.298,7.604
0.025,-5.098,8.153,7.7
0.068,-5.072,8.392,7.702
0.074,-4.994,8.758,7.717
0.147,-4.889,8.817,7.719
0.096,-5.085,8.723,7.8
0.053,-5.111,8.483,7.802
-0.006,-5.177,8.334,7.811
0.032,-5.228,8.208,7.814
0.002,-5.308,8.389,7.899
0.002,-5.308,8.389,7.901
-0.006,-5.177,8.334,7.902
0.068,-5.072,8.392,7.904
0.053,-5.111,8.483,7.999
0.015,-5.06,8.609,8.001
0.015,-5.06,8.609,8.002
0.03,-5.021,8.519,8.004
0.068,-5.072,8.392,8.099
0.045,-4.981,8.428,8.107
0.068,-5.072,8.392,8.109
-0.043,-5.126,8.46,8.11
-0.006,-5.177,8.334,8.2
0.009,-5.138,8.243,8.202
0.091,-5.162,8.357,8.204
0.075,-5.202,8.447,8.206
0.126,-5.006,8.542,8.298
0.038,-5.151,8.574,8.3
0.038,-5.151,8.574,8.302
0.038,-5.151,8.574,8.303
0.091,-5.162,8.357,8.399
-0.006,-5.177,8.334,8.4
0.075,-5.202,8.447,8.402
-0.021,-5.217,8.425,8.416
0.068,-5.072,8.392,8.502
0.053,-5.111,8.483,8.503
0.053,-5.111,8.483,8.505
0.053,-5.111,8.483,8.506
0.053,-5.111,8.483,8.599
0.038,-5.151,8.574,8.6
0.038,-5.151,8.574,8.602
0.053,-5.111,8.483,8.604
-0.028,-5.087,8.37,8.707
-0.028,-5.087,8.37,8.709
-0.006,-5.177,8.334,8.71
-0.006,-5.177,8.334,8.712
-0.043,-5.126,8.46,8.801
-0.043,-5.126,8.46,8.803
0.068,-5.072,8.392,8.815
0.045,-4.981,8.428,8.816
0.038,-5.151,8.574,8.899
0.053,-5.111,8.483,8.901
0.053,-5.111,8.483,8.903
-0.043,-5.126,8.46,8.904
0.068,-5.072,8.392,8.999
0.075,-5.202,8.447,9.0
0.053,-5.111,8.483,9.002
-0.043,-5.126,8.46,9.008
-0.028,-5.087,8.37,9.098
-0.021,-5.217,8.425,9.107
0.053,-5.111,8.483,9.108
-0.043,-5.126,8.46,9.11
0.053,-5.111,8.483,9.204
0.053,-5.111,8.483,9.216
0.053,-5.111,8.483,9.218
0.053,-5.111,8.483,9.221
0.053,-5.111,8.483,9.3
-0.028,-5.087,8.37,9.302
-0.028,-5.087,8.37,9.304
-0.028,-5.087,8.37,9.307
0.053,-5.111,8.483,9.409
0.053,-5.111,8.483,9.411
0.068,-5.072,8.392,9.412
0.053,-5.111,8.483,9.414
-0.043,-5.126,8.46,9.5
-0.043,-5.126,8.46,9.502
-0.028,-5.087,8.37,9.504
-0.028,-5.087,8.37,9.505
0.053,-5.111,8.483,9.611
0.053,-5.111,8.483,9.62
0.053,-5.111,8.483,9.622
0.053,-5.111,8.483,9.624
0.053,-5.111,8.483,9.711
-0.043,-5.126,8.46,9.713
-0.043,-5.126,8.46,9.714
0.068,-5.072,8.392,9.716
-0.043,-5.126,8.46,9.8
-0.036,-5.257,8.515,9.802
0.075,-5.202,8.447,9.803
-0.028,-5.087,8.37,9.805
0.053,-5.111,8.483,9.9
0.053,-5.111,8.483,9.902
0.068,-5.072,8.392,9.904
-0.006,-5.177,8.334,9.906
-0.006,-5.177,8.334,10.002
0.075,-5.202,8.447,10.004
0.119,-5.175,8.687,10.006
0.045,-5.281,8.628,10.008
0.098,-5.292,8.411,10.1
0.017,-5.268,8.298,10.103
0.179,-5.317,8.525,10.104
0.045,-5.281,8.628,10.106
0.176,-5.148,8.038,10.2
1.414,-5.171,7.957,10.202
2.355,-6.445,8.436,10.208
2.262,-8.218,10.515,10.21
1.344,-11.536,8.769,10.3
1.862,-12.018,4.715,10.302
6.338,-19.682,-6.315,10.304
8.591,-16.609,-5.773,10.316
14.388,2.159,4.974,10.405
10.927,6.453,7.043,10.407
7.677,7.502,7.298,10.408
8.039,4.151,0.749,10.41
5.683,0.837,-4.786,10.5
5.033,-5.655,-3.265,10.506
4.831,-22.72,-5.161,10.508
6.098,-31.365,-14.396,10.509
-1.374,-29.872,-15.698,10.6
0.136,-23.701,-8.137,10.602
-5.823,-18.516,-5.994,10.603
-5.143,-17.068,-2.486,10.605
10.059,-7.77,2.045,10.705
8.26,-3.783,8.539,10.707
5.861,3.305,9.933,10.73
7.299,8.913,11.106,10.732
-21.269,13.119,14.211,10.804
-10.39,16.031,3.997,10.805
9.12,24.725,11.704,10.807
18.43,13.756,-7.499,10.809
5.767,9.078,-11.516,10.9
3.9,7.4,-9.4,10.907
-0.696,7.965,-9.898,10.908
-1.22,7.773,-9.01,10.998
2.629,6.357,-7.786,11.002
2.763,3.712,-8.818,11.007
3.669,1.21,-11.065,11.009
5.061,2.18,-7.769,11.098
-0.914,-2.729,-8.857,11.101
-1.929,-4.057,-13.314,11.12
-6.2,-9.5,-11.9,11.123
-8.721,3.56,-0.057,11.2
20.377,0.903,1.84,11.204
12.913,0.694,7.839,11.206
12.271,1.798,6.346,11.208
16.244,-6.844,8.278,11.298
15.898,-8.953,9.819,11.302
15.475,-9.398,8.347,11.303
10.321,-12.717,5.075,11.305
13.615,-14.315,1.226,11.398
13.02,-12.336,20.052,11.402
9.24,-7.012,12.984,11.403
7.699,1.16,11.205,11.406
-5.378,3.865,6.33,11.498
-3.143,7.57,-21.061,11.512
4.883,12.748,-10.704,11.523
5.704,18.213,-0.074,11.526
-3.9,12.1,-10.8,11.598
-7.568,7.217,-12.798,11.602
-6.043,4.736,-11.285,11.603
-6.574,2.243,-8.54,11.605
-8.077,-0.411,-7.591,11.698
-8.515,-3.484,-7.024,11.701
-8.08,-6.033,-5.745,11.703
-6.131,-6.167,-5.008,11.708
-4.415,-7.746,-1.262,11.8
-2.262,-6.485,0.354,11.803
-1.985,-7.154,1.362,11.805
-3.3,-9.0,0.1,11.806
-3.976,-8.829,0.833,11.898
-4.198,-8.393,1.408,11.92
-4.615,-8.244,2.299,11.922
-3.54,-8.121,2.758,11.923
-1.254,-8.296,3.912,12.025
-2.719,-9.027,3.118,12.029
-1.016,-8.342,3.475,12.03
-1.341,-8.097,3.409,12.032
-0.91,-9.068,0.878,12.102
-0.171,-9.517,0.406,12.105
-0.762,-8.87,-0.032,12.107
-1.01,-9.448,-0.462,12.109
0.431,-10.231,-0.68,12.198
1.571,-9.571,-0.606,12.201
1.533,-10.733,-1.267,12.203
1.531,-11.531,-2.48,12.205
1.343,-11.943,-3.198,12.298
2.047,-12.047,-2.571,12.301
2.369,-10.969,-2.02,12.31
1.869,-10.269,-1.12,12.313
1.451,-9.951,-1.443,12.397
0.876,-10.176,-1.665,12.401
0.598,-10.598,-0.514,12.402
0.151,-10.751,-0.643,12.498
0.429,-11.229,-1.194,12.505
0.425,-10.825,-0.422,12.508
0.271,-11.071,0.094,12.51
0.339,-11.039,-0.025,12.598
0.408,-11.008,-0.145,12.6
0.739,-10.839,0.675,12.603
0.708,-10.408,1.355,12.605
0.89,-9.49,1.031,12.722
0.751,-9.151,0.957,12.725
0.776,-8.576,0.035,12.729
0.435,-8.935,0.247,12.731
0.171,-8.871,-0.306,12.797
0.202,-8.602,-0.886,12.798
0.161,-8.861,0.025,12.802
0.537,-8.537,0.661,12.899
0.747,-9.247,0.929,12.905
0.727,-9.027,0.892,12.907
0.735,-9.535,0.847,12.912
0.604,-9.704,0.727,12.914
2.013,-9.467,0.573,12.977
2.146,-9.471,0.623,12.979
1.79,-9.481,0.562,12.983
1.994,-9.729,0.397,12.994
