vertical_Accel_x,vertical_Accel_y,vertical_Accel_z,accel_time_list
0.488,-2.641,-9.441,0.0
1.914,-2.769,-9.669,0.002
1.624,-2.718,-9.318,0.004
1.216,-1.978,-9.078,0.006
0.833,-2.567,-9.167,0.098
1.2,-2.6,-9.4,0.103
1.237,-2.286,-9.386,0.105
0.969,-2.443,-9.443,0.107
1.218,-2.388,-9.188,0.224
0.986,-2.231,-9.231,0.226
0.412,-2.859,-9.359,0.228
0.776,-2.682,-9.282,0.234
-0.092,-2.339,-8.939,0.326
-0.151,-1.945,-9.045,0.328
-0.398,-2.61,-9.21,0.329
-0.551,-2.945,-9.145,0.331
-0.137,-1.314,-8.214,0.345
-0.175,1.525,-8.155,0.433
-0.712,2.088,-8.982,0.442
-0.979,2.117,-9.196,0.443
0.687,2.781,-8.393,0.446
1.272,4.43,-8.087,0.497
0.587,5.121,-8.647,0.498
0.217,5.702,-8.068,0.5
0.77,5.819,-6.779,0.599
1.509,4.84,-6.511,0.605
1.386,4.239,-5.883,0.607
1.197,3.468,-5.337,0.609
0.429,3.836,-4.289,0.726
0.033,5.733,-3.433,0.728
4.084,7.258,-9.944,0.73
7.531,17.884,-18.411,0.74
4.586,16.412,5.079,0.812
3.241,7.665,-0.636,0.814
0.647,6.203,-4.055,0.815
-1.875,5.964,-5.017,0.817
0.501,5.956,-7.77,0.82
1.189,8.881,-7.431,0.897
0.917,10.714,-7.558,0.904
1.851,10.884,-5.205,0.905
0.549,8.516,-2.595,1.001
0.683,7.886,-2.042,1.003
1.46,8.191,-2.534,1.012
2.151,9.384,-3.405,1.013
2.082,9.23,-3.672,1.125
1.686,8.912,-3.721,1.127
1.586,8.612,-3.821,1.154
1.661,8.548,-3.804,1.156
1.809,9.107,-3.529,1.225
1.861,9.148,-3.604,1.227
1.883,9.043,-3.512,1.229
1.76,8.791,-3.334,1.234
1.819,9.026,-3.298,1.237
1.606,8.838,-4.219,1.322
1.624,9.008,-4.248,1.323
1.617,8.757,-3.988,1.325
1.698,9.187,-2.76,1.406
1.739,9.252,-2.696,1.408
1.907,9.294,-2.689,1.409
1.907,9.294,-2.689,1.411
1.888,9.124,-2.661,1.497
1.9,9.1,-2.8,1.507
1.923,9.051,-3.078,1.508
1.964,9.117,-3.014,1.51
1.923,9.051,-3.078,1.6
1.935,9.027,-3.217,1.601
1.894,8.962,-3.281,1.603
1.894,8.962,-3.281,1.605
1.745,9.09,-3.316,1.726
1.785,9.155,-3.251,1.727
1.785,9.155,-3.251,1.729
1.745,9.09,-3.316,1.731
1.745,9.09,-3.316,1.827
1.745,9.09,-3.316,1.829
1.819,9.026,-3.298,1.83
1.935,9.027,-3.217,1.832
2.05,9.028,-3.135,1.926
2.103,9.069,-3.21,1.927
2.05,9.028,-3.135,1.929
2.103,9.069,-3.21,1.931
2.118,8.77,-3.228,1.999
2.178,9.005,-3.192,2.0
2.057,9.222,-3.024,2.002
1.971,9.311,-2.903,2.003
2.046,9.247,-2.885,2.096
2.039,9.052,-2.996,2.103
2.125,8.964,-3.117,2.104
2.166,9.029,-3.053,2.106
2.207,9.094,-2.989,2.225
2.207,9.094,-2.989,2.227
2.207,9.094,-2.989,2.228
2.207,9.094,-2.989,2.23
2.322,9.095,-2.908,2.301
2.154,9.053,-2.915,2.303
2.282,9.03,-2.972,2.305
2.282,9.03,-2.972,2.306
2.282,9.03,-2.972,2.422
2.356,8.966,-2.954,2.424
2.409,9.007,-3.029,2.426
2.409,9.007,-3.029,2.428
2.547,8.903,-2.855,2.503
2.599,8.944,-2.93,2.505
2.599,8.944,-2.93,2.511
2.513,9.032,-2.809,2.513
2.45,9.072,-2.965,2.622
2.409,9.007,-3.029,2.624
2.397,9.031,-2.89,2.625
2.397,9.031,-2.89,2.635
2.472,8.967,-2.873,2.73
2.472,8.967,-2.873,2.732
2.368,8.942,-3.093,2.733
2.368,8.942,-3.093,2.735
2.178,9.005,-3.192,2.798
2.218,9.07,-3.128,2.8
2.218,9.07,-3.128,2.802
2.091,9.093,-3.071,2.803
2.207,9.094,-2.989,2.921
2.282,9.03,-2.972,2.923
2.368,8.942,-3.093,2.93
2.38,8.917,-3.232,3.0
2.321,8.739,-3.638,3.003
2.247,8.803,-3.655,3.005
2.235,8.827,-3.517,3.014
2.235,8.827,-3.517,3.016
2.178,9.005,-3.192,3.124
2.178,9.005,-3.192,3.126
2.178,9.005,-3.192,3.131
2.189,8.981,-3.331,3.2
1.877,8.849,-3.622,3.203
1.97,8.954,-3.633,3.204
2.097,8.931,-3.69,3.206
2.131,8.802,-3.737,3.212
2.079,8.761,-3.662,3.324
2.004,8.825,-3.68,3.325
1.929,8.889,-3.697,3.327
1.958,8.979,-3.494,3.429
2.021,8.939,-3.338,3.432
2.223,8.851,-3.378,3.442
2.235,8.827,-3.517,3.443
2.247,8.803,-3.655,3.445
2.119,8.826,-3.598,3.523
2.033,8.915,-3.477,3.525
1.987,9.068,-3.291,3.527
2.091,9.093,-3.071,3.528
2.195,9.118,-2.85,3.623
2.334,9.071,-3.047,3.628
2.23,9.046,-3.267,3.629
2.201,8.956,-3.47,3.724
2.235,8.827,-3.517,3.728
2.276,8.892,-3.452,3.729
2.548,8.959,-3.225,3.731
2.2,8.9,-3.1,3.733
2.663,8.96,-3.144,3.841
2.685,8.855,-3.051,3.843
2.622,8.895,-3.208,3.845
2.373,8.723,-3.343,3.857
2.6,8.0,-5.1,3.924
2.573,8.137,-5.076,3.932
2.478,8.039,-5.041,3.934
2.671,7.986,-4.943,3.935
2.759,8.48,-4.747,4.025
2.5,9.3,-4.3,4.026
2.318,8.859,-4.894,4.028
2.286,8.043,-5.271,4.03
2.318,7.559,-5.394,4.125
2.414,7.457,-5.129,4.126
2.659,7.38,-5.247,4.128
2.786,7.243,-5.571,4.134
2.22,6.81,-6.627,4.2
2.39,7.045,-6.937,4.201
2.284,7.192,-6.239,4.203
2.296,7.598,-5.635,4.205
2.045,8.022,-5.418,4.322
2.237,8.218,-5.488,4.324
2.549,8.424,-5.484,4.425
2.473,8.537,-5.376,4.427
2.249,7.924,-6.284,4.43
1.996,7.498,-7.035,4.431
2.1,8.3,-6.5,4.433
1.431,9.665,-7.09,4.439
-0.424,8.727,-8.863,4.525
0.657,9.071,-7.786,4.527
2.2,9.6,-7.1,4.533
-0.514,10.057,-7.529,4.542
-0.142,7.703,-5.815,4.624
0.042,6.157,-8.165,4.625
-3.662,6.872,-10.043,4.627
-4.015,9.083,-6.672,4.722
-2.394,6.479,-6.04,4.726
-3.381,6.036,-5.521,4.727
-2.649,9.032,-0.997,4.732
-1.696,10.051,1.533,4.822
-1.973,10.357,-0.667,4.826
-1.748,11.304,1.463,4.827
2.748,13.796,1.637,4.829
3.552,19.104,-1.137,4.897
-0.537,16.926,-3.359,4.901
-1.441,15.719,-3.285,4.902
-6.344,15.911,-3.811,4.912
-14.548,10.71,-2.962,5.027
-12.452,4.23,2.542,5.034
-14.252,-0.51,5.362,5.036
-11.815,-9.648,7.193,5.124
-7.263,-17.93,5.619,5.125
1.363,-34.47,14.681,5.129
-3.052,-39.519,20.374,5.13
18.229,-29.233,16.578,5.132
27.197,-24.446,-6.38,5.229
20.017,-26.134,-6.994,5.232
17.155,-13.911,9.496,5.234
-10.129,7.041,5.178,5.235
11.714,40.201,33.697,5.327
42.336,44.31,12.871,5.33
0.728,9.981,14.258,5.34
-10.668,14.895,13.715,5.342
-29.572,-19.242,17.049,5.423
12.1,11.718,-44.071,5.429
10.267,21.155,-26.42,5.431
-15.4,2.665,-7.759,5.433
-8.659,-7.374,1.237,5.522
-1.216,-4.767,5.313,5.525
7.584,13.113,-8.027,5.527
-0.505,9.584,-1.516,5.528
2.922,-0.659,10.444,5.598
7.756,-0.024,19.44,5.601
5.458,13.168,21.945,5.603
16.06,1.949,31.874,5.608
14.0,6.0,33.2,5.725
-3.353,5.517,0.509,5.738
4.291,0.179,6.989,5.74
0.917,1.986,5.009,5.825
-2.499,3.538,3.184,5.826
-0.503,12.986,-2.051,5.83
1.843,12.114,-0.329,5.831
2.823,11.708,3.069,5.833
0.608,12.369,0.723,5.925
4.454,5.885,8.762,5.928
1.023,6.008,7.769,5.934
-1.569,9.277,6.092,5.936
-3.731,9.846,5.916,6.029
-3.022,6.974,4.569,6.032
-7.728,4.022,4.734,6.034
-5.853,5.628,2.979,6.035
3.645,9.144,6.067,6.124
0.652,11.28,6.115,6.137
1.903,13.076,4.518,6.139
1.022,11.026,2.931,6.141
0.864,7.785,4.886,6.229
-1.987,3.997,9.977,6.232
-2.298,6.084,8.512,6.234
-2.099,7.392,6.006,6.235
0.615,8.281,3.489,6.297
4.121,10.034,1.925,6.307
2.068,11.853,3.41,6.309
-0.878,14.326,-0.769,6.421
-0.927,12.214,-1.46,6.428
-0.52,9.558,0.881,6.432
1.38,6.32,6.463,6.524
2.969,7.631,6.38,6.525
2.304,8.896,5.327,6.535
2.355,8.945,4.784,6.538
2.624,7.876,6.665,6.54
1.958,7.724,6.412,6.626
1.315,6.91,6.841,6.628
1.22,6.7,5.46,6.631
1.838,7.024,5.252,6.633
1.951,7.857,4.626,6.722
2.335,7.71,5.201,6.724
3.456,6.548,7.545,6.727
3.791,6.396,7.816,6.729
3.445,5.838,7.678,6.822
3.155,5.262,7.622,6.829
3.218,5.127,7.427,6.832
3.227,5.531,7.511,6.834
3.073,5.989,7.349,6.923
2.936,6.355,7.155,6.928
2.418,7.107,6.567,6.932
2.3,7.38,6.34,6.933
2.373,7.389,6.049,6.997
2.327,7.291,5.691,6.999
2.536,7.075,6.115,7.002
2.655,7.062,6.522,7.004
2.873,6.989,6.849,7.121
2.764,6.905,7.025,7.123
2.355,6.602,6.742,7.127
2.527,6.431,6.711,7.223
2.682,6.353,6.713,7.225
2.718,6.427,6.827,7.227
2.836,6.535,6.895,7.23
2.7,6.52,6.86,7.24
2.727,6.571,6.731,7.322
2.618,6.607,6.567,7.324
2.5,6.76,6.68,7.327
2.5,6.76,6.68,7.329
2.473,6.709,6.809,7.422
2.709,6.664,6.764,7.424
2.782,6.553,6.813,7.427
2.782,6.553,6.813,7.429
2.782,6.553,6.813,7.522
2.782,6.553,6.813,7.524
2.645,6.538,6.778,7.527
2.709,6.664,6.764,7.529
2.582,6.793,6.633,7.622
2.5,6.76,6.68,7.624
2.573,6.649,6.729,7.636
2.573,6.649,6.729,7.637
2.655,6.682,6.682,7.698
2.591,6.556,6.696,7.7
2.836,6.535,6.895,7.705
2.836,6.535,6.895,7.707
2.727,6.571,6.731,7.82
2.655,6.682,6.682,7.822
2.573,6.649,6.729,7.926
2.473,6.709,6.809,7.927
2.518,6.667,6.647,7.929
2.655,6.682,6.682,7.935
2.709,6.664,6.764,7.938
2.573,6.649,6.729,8.029
2.518,6.667,6.647,8.03
2.627,6.631,6.811,8.032
2.682,6.613,6.893,8.043
2.7,6.52,6.86,8.045
2.8,6.46,6.78,8.121
2.736,6.715,6.635,8.123
2.555,6.742,6.762,8.126
2.491,6.616,6.776,8.225
2.682,6.613,6.893,8.227
2.7,6.52,6.86,8.228
2.645,6.538,6.778,8.232
2.782,6.553,6.813,8.322
2.782,6.553,6.813,8.324
2.7,6.52,6.86,8.325
2.655,6.682,6.682,8.328
2.518,6.667,6.647,8.397
2.682,6.613,6.893,8.407
2.682,6.613,6.893,8.421
2.655,6.682,6.682,8.425
2.655,6.682,6.682,8.52
2.727,6.571,6.731,8.521
2.755,6.502,6.942,8.523
2.764,6.265,7.005,8.598
2.827,6.391,6.991,8.6
2.636,6.395,6.875,8.602
2.645,6.538,6.778,8.603
2.564,6.885,6.665,8.606
2.482,6.853,6.713,8.72
2.518,6.667,6.647,8.726
2.591,6.556,6.696,8.728
2.855,6.442,6.862,8.823
2.891,6.516,6.976,8.824
2.836,6.535,6.895,8.834
2.7,6.52,6.86,8.836
2.627,6.631,6.811,8.847
2.627,6.631,6.811,8.921
2.627,6.631,6.811,8.923
2.645,6.538,6.778,8.929
2.773,6.409,6.909,8.933
2.855,6.442,6.862,9.029
2.7,6.52,6.86,9.031
2.645,6.538,6.778,9.033
2.709,6.664,6.764,9.038
2.682,6.613,6.893,9.102
2.7,6.52,6.86,9.104
2.645,6.538,6.778,9.107
2.645,6.538,6.778,9.112
2.918,6.567,6.847,9.22
2.818,6.627,6.927,9.221
2.545,6.598,6.858,9.223
2.609,6.464,6.664,9.326
2.727,6.571,6.731,9.331
2.918,6.567,6.847,9.332
2.873,6.609,7.009,9.336
2.845,6.298,6.958,9.34
2.609,6.464,6.664,9.422
2.455,6.542,6.662,9.424
2.636,6.775,6.715,9.425
2.609,6.724,6.844,9.435
2.645,6.538,6.778,9.522
2.718,6.427,6.827,9.523
2.736,6.335,6.795,9.525
2.836,6.535,6.895,9.536
2.782,6.553,6.813,9.621
2.627,6.631,6.811,9.624
2.645,6.538,6.778,9.625
2.718,6.427,6.827,9.722
2.782,6.553,6.813,9.723
2.764,6.645,6.845,9.725
2.627,6.631,6.811,9.726
2.664,6.445,6.745,9.814
2.773,6.409,6.909,9.816
2.918,6.567,6.847,9.818
2.682,6.613,6.893,9.819
2.591,6.556,6.696,9.92
2.536,6.575,6.615,9.923
2.645,6.538,6.778,9.93
2.755,6.502,6.942,9.932
2.736,6.595,6.975,10.032
2.545,6.598,6.858,10.034
2.745,6.478,6.698,10.036
2.973,6.289,6.749,10.038
2.809,6.484,7.024,10.122
2.718,6.687,7.007,10.124
2.6,6.58,6.94,10.125
2.664,6.445,6.745,10.127
2.718,6.427,6.827,10.225
2.682,6.613,6.893,10.227
2.8,6.72,6.96,10.229
2.764,6.645,6.845,10.231
2.664,6.445,6.745,10.321
2.727,6.571,6.731,10.323
2.645,6.538,6.778,10.324
2.682,6.613,6.893,10.337
2.755,6.502,6.942,10.42
2.773,6.409,6.909,10.422
2.718,6.427,6.827,10.425
2.718,6.427,6.827,10.427
2.755,6.502,6.942,10.496
2.764,6.645,6.845,10.498
2.673,6.589,6.649,10.499
2.591,6.556,6.696,10.501
2.7,6.52,6.86,10.62
2.836,6.535,6.895,10.622
2.755,6.502,6.942,10.623
2.7,6.52,6.86,10.625
2.645,6.538,6.778,10.729
2.582,6.413,6.793,10.731
2.691,6.376,6.956,10.774
2.973,6.549,6.929,10.776
2.764,6.645,6.845,10.854
2.673,6.589,6.649,10.855
2.591,6.556,6.696,10.857
2.627,6.631,6.811,10.859
2.764,6.645,6.845,10.921
2.755,6.502,6.942,10.923
2.8,6.46,6.78,10.925
2.718,6.427,6.827,10.926
2.7,6.52,6.86,11.029
2.755,6.502,6.942,11.031
2.755,6.502,6.942,11.033
2.7,6.52,6.86,11.036
2.591,6.556,6.696,11.122
2.7,6.52,6.86,11.133
2.764,6.645,6.845,11.134
2.764,6.645,6.845,11.142
2.855,6.442,6.862,11.196
2.855,6.442,6.862,11.201
2.7,6.52,6.86,11.203
2.6,6.58,6.94,11.205
2.473,6.709,6.809,11.319
2.545,6.598,6.858,11.321
2.718,6.427,6.827,11.323
2.818,6.367,6.747,11.422
2.855,6.442,6.862,11.426
2.764,6.645,6.845,11.427
2.745,6.738,6.878,11.429
3.064,6.725,6.785,11.431
2.682,6.353,6.713,11.54
2.591,6.436,7.036,11.542
2.3,6.5,7.0,11.544
2.264,6.805,6.725,11.545
2.527,6.811,6.551,11.624
2.791,6.696,6.716,11.626
3.227,6.411,6.851,11.627
3.409,6.384,6.724,11.629
2.718,6.427,6.827,11.765
2.4,6.44,6.92,11.767
2.064,6.545,7.045,11.769
1.873,6.549,6.929,11.77
2.336,6.695,6.775,11.823
2.582,6.793,6.633,11.824
3.0,6.72,6.46,11.826
3.118,6.827,6.527,11.828
2.982,6.693,6.833,11.899
2.818,6.627,6.927,11.901
2.709,6.664,6.764,11.903
2.591,6.556,6.696,11.904
2.327,6.671,6.531,12.028
2.382,6.653,6.613,12.036
2.609,6.724,6.844,12.038
2.773,6.669,7.089,12.122
2.745,6.358,7.038,12.126
2.545,6.338,6.678,12.127
2.391,6.416,6.676,12.129
2.5,6.76,6.68,12.13
2.545,6.978,6.698,12.224
2.555,6.742,6.762,12.23
2.827,6.511,6.651,12.232
2.764,6.385,6.665,12.242
2.736,6.595,6.975,12.323
2.555,6.742,6.762,12.324
2.527,6.811,6.551,12.326
2.455,6.922,6.502,12.332
1.273,8.089,8.649,12.423
1.109,8.804,9.284,12.424
1.155,9.782,14.482,12.426
3.145,8.358,15.038,12.428
4.9,11.9,13.0,12.523
4.811,13.809,11.121,12.525
3.736,12.649,10.372,12.527
3.098,10.538,9.696,12.528
1.947,6.529,7.353,12.598
2.727,7.492,5.739,12.599
2.033,10.033,3.133,12.609
0.076,8.735,2.324,12.61
-1.126,7.807,0.034,12.748
-0.63,7.645,0.492,12.751
0.533,6.067,-0.633,12.825
0.964,5.309,-2.836,12.827
3.141,4.387,-2.525,12.83
3.436,3.696,-0.989,12.832
3.855,3.535,-1.304,12.833
5.306,2.333,-0.731,12.922
6.38,0.924,-3.398,12.929
6.688,0.635,-1.839,12.931
7.01,1.088,-0.651,12.933
7.865,3.016,-2.247,12.934
8.966,2.82,-3.182,13.028
9.098,3.308,-2.33,13.046
8.495,3.269,-1.075,13.047
8.986,4.098,3.302,13.12
8.216,4.845,2.555,13.124
10.659,2.694,3.506,13.125
11.175,2.539,3.261,13.131
5.448,5.885,4.207,13.233
7.803,6.324,2.93,13.242
7.673,7.882,3.427,13.244
6.452,7.612,4.415,13.246
4.629,7.534,5.026,13.295
5.525,7.602,3.419,13.299
4.819,6.854,5.359,13.303
3.83,5.842,7.403,13.306
4.453,6.771,7.147,13.42
6.388,6.318,5.012,13.431
2.967,6.567,5.867,13.433
5.759,5.512,5.441,13.504
3.443,6.202,6.09,13.506
6.72,3.537,4.914,13.509
8.594,3.059,3.806,13.513
7.339,1.975,5.427,13.515
3.81,10.981,6.868,13.619
2.131,7.751,7.98,13.624
9.67,2.158,6.297,13.626
4.96,6.711,5.02,13.697
1.81,8.972,4.795,13.699
5.2,7.8,5.1,13.702
3.568,7.229,4.516,13.704
3.821,6.922,3.94,13.71
3.7,7.1,4.0,13.82
6.386,4.819,5.507,13.831
3.573,9.215,3.963,13.869
0.691,8.974,4.672,13.94
2.826,7.477,4.783,13.942
5.062,7.785,5.326,13.948
3.451,9.053,5.566,13.95
2.747,7.94,5.802,13.951
4.213,7.038,4.991,14.0
3.672,8.017,4.985,14.003
1.957,7.672,6.462,14.005
4.264,8.191,5.157,14.006
3.404,8.313,5.664,14.12
2.445,6.834,5.87,14.124
2.906,6.619,5.896,14.126
3.713,7.838,5.491,14.221
3.279,8.636,4.781,14.232
4.396,6.287,5.936,14.237
2.755,8.566,5.43,14.239
4.43,7.289,4.747,14.241
1.515,7.645,5.223,14.352
4.453,7.66,4.698,14.358
5.415,6.745,7.023,14.36
1.47,8.111,5.253,14.362
1.053,8.493,3.896,14.419
6.016,6.456,4.875,14.423
5.411,7.891,4.023,14.522
3.889,8.329,4.517,14.523
5.374,7.354,4.002,14.525
4.153,6.593,5.596,14.528
3.147,7.987,6.464,14.53
1.77,8.611,3.253,14.623
6.474,7.523,3.817,14.625
3.585,7.655,5.477,14.628
3.838,7.615,4.474,14.63
4.8,7.1,3.9,14.632
3.774,7.923,3.917,14.72
3.664,7.691,4.357,14.727
4.383,7.049,4.745,14.729
3.826,7.577,4.383,14.82
2.509,8.126,4.228,14.822
5.172,7.517,4.985,14.825
4.362,7.385,4.826,14.859
3.691,6.974,4.872,14.921
1.798,7.594,4.768,14.923
3.955,7.466,4.63,14.926
3.821,7.364,5.019,14.938
4.089,7.268,5.24,14.997
2.553,8.56,5.898,14.999
4.838,7.715,4.074,15.002
4.026,8.877,3.483,15.004
