accel_time_list,accel_x_list,accel_y_list,accel_z_list
0.0,-2.2,5.1,8.8
0.006,0.1,5.3,8.9
0.008,-0.9,5.4,8.9
0.009,-4.7,8.2,7.6
0.102,0.1,3.3,8.1
0.105,-0.5,3.6,8.0
0.106,-2.2,5.6,8.7
0.108,-1.2,5.0,8.3
0.113,-1.2,4.5,8.1
0.115,-1.8,5.1,8.2
0.201,-1.5,5.1,8.3
0.203,-1.2,4.8,8.1
0.205,-1.4,4.9,8.2
0.206,-1.5,4.9,8.1
0.208,-1.6,4.7,8.1
0.301,-1.8,4.8,8.2
0.307,-2.0,4.7,8.1
0.308,-2.3,4.6,7.9
0.31,-2.6,4.5,7.7
0.323,-3.0,4.5,7.5
0.401,-2.9,4.7,7.3
0.403,-2.7,4.3,7.4
0.405,-2.9,3.6,7.2
0.406,-3.1,3.3,7.2
0.408,-2.7,3.2,7.3
0.5,-2.6,2.9,7.5
0.502,-2.8,1.9,8.5
0.507,-2.6,1.5,8.2
0.509,-2.4,1.0,8.7
0.51,-2.3,0.2,8.9
0.601,-1.9,-0.7,8.4
0.603,-1.7,-1.3,8.7
0.604,-2.1,-2.4,9.4
0.612,-1.9,-3.6,9.3
0.614,-1.8,-4.8,8.8
0.701,-1.5,-5.7,8.5
0.703,-1.5,-5.9,7.9
0.704,-1.9,-5.6,7.4
0.714,-2.4,-6.0,6.4
0.716,-2.5,-5.9,4.7
0.805,-2.7,-5.4,3.5
0.807,-4.2,-6.0,2.9
0.809,-10.7,-21.1,25.8
0.824,-0.7,-10.6,23.2
0.826,-1.6,2.1,9.8
0.901,-1.5,0.9,4.3
0.903,-0.7,-3.6,3.3
0.904,-3.1,-4.5,6.8
0.906,-5.2,-3.9,10.2
0.908,-5.7,-3.9,10.3
1.001,-4.2,-5.0,8.2
1.003,-3.6,-5.3,6.7
1.005,-4.1,-5.3,6.4
1.006,-4.3,-5.5,6.8
1.008,-4.3,-5.6,7.2
1.101,-4.2,-5.7,7.2
1.114,-4.0,-5.7,7.0
1.124,-3.9,-5.6,6.9
1.125,-3.8,-5.5,7.0
1.135,-3.9,-5.5,7.2
1.201,-3.9,-5.3,7.2
1.203,-4.0,-5.3,7.2
1.204,-4.0,-5.4,7.1
1.206,-3.9,-5.4,7.2
1.215,-3.9,-5.5,7.2
1.3,-3.9,-5.4,7.3
1.302,-3.9,-5.3,7.3
1.303,-3.9,-5.3,7.3
1.305,-4.0,-5.3,7.3
1.401,-4.0,-5.3,7.2
1.407,-4.0,-5.2,7.2
1.409,-4.0,-5.2,7.2
1.41,-4.0,-5.3,7.2
1.412,-4.0,-5.4,7.1
1.501,-3.9,-5.5,7.1
1.502,-3.9,-5.5,7.0
1.512,-3.9,-5.5,7.1
1.52,-3.9,-5.5,7.1
1.522,-3.8,-5.6,7.1
1.601,-3.8,-5.5,7.1
1.602,-3.8,-5.6,7.1
1.604,-3.8,-5.6,7.1
1.606,-3.8,-5.5,7.1
1.607,-3.9,-5.5,7.1
1.702,-3.8,-5.5,7.0
1.704,-3.8,-5.6,7.1
1.709,-3.8,-5.5,7.1
1.711,-3.8,-5.5,7.2
1.712,-3.8,-5.5,7.1
1.826,-3.9,-5.5,7.1
1.827,-3.8,-5.5,7.1
1.829,-3.9,-5.5,7.1
1.831,-3.9,-5.5,7.1
1.832,-3.9,-5.6,7.1
1.902,-3.8,-5.5,7.1
1.912,-3.8,-5.5,7.1
1.913,-3.9,-5.5,7.1
1.915,-3.9,-5.5,7.1
1.917,-3.9,-5.5,7.1
1.925,-3.9,-5.5,7.1
1.999,-3.8,-5.5,7.1
2.001,-3.9,-5.5,7.1
2.003,-3.8,-5.6,7.1
2.004,-3.8,-5.6,7.1
2.1,-3.7,-5.6,7.1
2.102,-3.7,-5.6,7.1
2.108,-3.7,-5.7,7.1
2.109,-3.7,-5.7,7.0
2.111,-3.7,-5.6,7.1
2.205,-3.8,-5.6,7.1
2.206,-3.8,-5.6,7.1
2.208,-3.8,-5.6,7.1
2.21,-3.9,-5.6,7.0
2.211,-3.9,-5.5,7.0
2.301,-3.9,-5.5,7.1
2.302,-3.9,-5.6,7.1
2.304,-3.8,-5.5,7.0
2.305,-3.8,-5.6,7.1
2.307,-3.8,-5.6,7.2
2.401,-3.8,-5.5,7.2
2.406,-3.8,-5.5,7.1
2.407,-3.8,-5.6,7.1
2.409,-3.8,-5.6,7.1
2.411,-3.8,-5.6,7.1
2.501,-3.9,-5.6,7.1
2.502,-3.8,-5.6,7.0
2.504,-3.8,-5.6,7.0
2.506,-3.8,-5.6,7.0
2.508,-3.9,-5.6,7.1
2.601,-3.9,-5.6,7.1
2.602,-3.9,-5.5,7.1
2.604,-3.9,-5.5,7.1
2.605,-3.9,-5.5,7.1
2.615,-3.9,-5.5,7.1
2.701,-3.9,-5.5,7.1
2.702,-3.8,-5.5,7.1
2.704,-3.8,-5.6,7.1
2.705,-3.8,-5.6,7.1
2.707,-3.8,-5.5,7.1
2.802,-3.9,-5.6,7.1
2.804,-3.8,-5.6,7.1
2.805,-3.8,-5.6,7.0
2.807,-3.9,-5.6,7.0
2.809,-3.9,-5.6,7.1
2.9,-3.9,-5.6,7.0
2.901,-3.9,-5.6,7.0
2.903,-3.9,-5.5,7.0
2.91,-3.9,-5.6,7.1
3.001,-3.9,-5.6,7.0
3.002,-3.9,-5.6,7.0
3.004,-3.9,-5.6,7.1
3.005,-3.9,-5.5,7.1
3.015,-3.9,-5.7,7.1
3.1,-3.9,-5.7,7.0
3.102,-3.9,-5.6,7.0
3.104,-3.9,-5.6,7.0
3.105,-3.9,-5.6,7.0
3.107,-3.9,-5.6,7.0
3.2,-3.9,-5.7,7.0
3.202,-3.9,-5.8,7.0
3.204,-3.9,-5.7,7.0
3.205,-3.9,-5.7,7.0
3.207,-3.9,-5.7,7.0
3.3,-4.0,-5.6,7.0
3.302,-3.9,-5.5,7.0
3.304,-3.9,-5.7,7.0
3.305,-3.9,-5.9,7.2
3.307,-3.9,-5.8,7.2
3.4,-3.9,-5.5,7.2
3.402,-3.9,-5.5,7.2
3.404,-4.0,-5.5,7.4
3.419,-4.1,-5.4,7.2
3.42,-4.1,-5.5,7.1
3.506,-4.1,-5.3,7.6
3.508,-4.0,-5.0,7.6
3.509,-4.1,-4.9,7.3
3.511,-4.3,-4.4,7.8
3.513,-4.6,-4.2,7.8
3.6,-4.4,-4.0,7.6
3.602,-4.7,-4.5,6.4
3.604,-5.5,-4.9,6.7
3.605,-4.6,-4.4,7.2
3.61,-4.4,-4.7,8.0
3.7,-4.4,-4.2,7.7
3.702,-4.3,-3.8,7.5
3.704,-4.3,-4.7,7.2
3.705,-3.7,-4.6,7.8
3.707,-3.7,-4.3,8.8
3.8,-3.6,-3.8,9.1
3.805,-3.5,-3.9,8.5
3.816,-3.3,-4.8,7.5
3.818,-3.3,-4.6,7.9
3.819,-3.6,-4.3,8.9
3.9,-3.3,-3.9,9.1
3.902,-3.3,-3.6,9.0
3.903,-3.5,-4.2,7.5
3.905,-3.2,-4.5,7.9
3.907,-3.3,-4.1,8.4
4.001,-3.2,-3.7,8.4
4.002,-3.2,-3.9,8.4
4.004,-3.2,-4.0,8.3
4.006,-3.4,-3.9,8.1
4.007,-3.4,-4.2,8.0
4.1,-3.5,-4.3,8.2
4.102,-3.7,-4.1,8.4
4.104,-3.6,-4.0,8.6
4.105,-3.7,-4.0,8.4
4.107,-3.7,-4.1,8.2
4.202,-3.8,-4.0,8.4
4.212,-4.0,-3.9,8.4
4.214,-4.0,-3.8,8.4
4.223,-3.8,-3.6,8.9
4.225,-3.7,-3.1,9.0
4.3,-3.6,-3.1,8.5
4.302,-3.3,-3.6,8.3
4.303,-3.2,-3.6,8.7
4.315,-3.4,-3.7,9.0
4.316,-3.4,-4.2,8.4
4.405,-3.1,-4.7,7.8
4.406,-3.3,-3.8,8.0
4.408,-4.1,-3.1,8.6
4.411,-5.3,-3.5,9.1
4.413,-6.0,-3.3,8.1
4.501,-5.4,-2.9,6.9
4.503,-4.3,-3.0,7.0
4.505,-4.4,-2.8,7.8
4.512,-4.6,-2.4,7.6
4.513,-3.6,-2.3,7.2
4.599,-2.8,-2.5,6.8
4.601,-2.1,-2.0,5.7
4.603,-1.5,-2.4,4.6
4.604,0.7,-2.5,5.8
4.701,1.9,-0.9,6.1
4.703,2.7,-1.7,5.7
4.705,3.4,-4.4,5.7
4.706,4.2,-4.6,5.4
4.711,3.7,-3.2,4.9
4.8,2.3,-3.8,4.9
4.802,0.1,-4.3,4.6
4.803,-1.7,-3.5,4.0
4.806,-1.7,-3.7,3.3
4.809,-0.9,-3.2,4.2
4.901,-1.5,-1.5,4.2
4.903,-3.2,-1.3,4.0
4.905,-4.7,-1.2,2.3
4.907,-5.4,-0.1,2.2
4.909,-5.1,-3.9,0.8
5.0,2.2,1.2,0.8
5.002,36.8,5.1,0.5
5.005,39.2,1.2,8.0
5.006,39.2,-13.0,20.8
5.008,31.7,-14.1,18.8
5.1,-1.7,-5.3,20.7
5.103,-12.4,7.8,23.0
5.105,-20.5,17.8,14.4
5.107,-11.9,10.6,1.2
5.108,-0.6,-0.3,-11.8
5.2,6.1,-8.1,-11.1
5.202,6.2,-2.8,-9.8
5.203,2.7,4.0,-5.0
5.205,-1.2,6.1,0.0
5.212,-3.3,4.9,-3.8
5.3,-1.1,4.1,-5.3
5.302,3.7,4.7,-3.4
5.303,6.8,4.3,-3.1
5.305,9.5,2.8,-3.4
5.32,18.4,0.3,-3.0
5.399,31.2,-2.4,-3.7
5.401,18.6,-1.1,-3.6
5.402,17.7,-1.7,-2.2
5.404,11.1,-2.4,-2.7
5.406,4.7,-4.1,-1.2
5.5,-1.3,-5.5,0.4
5.502,-4.6,-5.3,1.5
5.509,-4.0,-2.6,2.4
5.51,-1.6,-0.7,3.5
5.512,-2.3,-2.8,3.2
5.6,-4.2,-6.6,2.9
5.606,-4.9,-10.3,3.7
5.608,-5.8,-37.8,11.3
5.609,0.6,-39.2,7.8
5.612,-14.2,-25.0,7.1
5.701,-7.6,-12.5,0.0
5.703,4.7,-4.4,2.3
5.705,0.7,-1.4,2.0
5.714,-3.6,-1.9,1.8
5.716,-1.1,-6.4,0.6
5.806,1.6,-5.1,1.5
5.808,3.4,-3.9,2.7
5.81,3.6,-5.3,2.5
5.811,4.0,-6.8,1.9
5.813,4.6,-7.0,1.7
5.9,4.2,-6.5,1.6
5.902,3.2,-6.3,1.9
5.908,1.9,-6.5,2.1
5.91,2.2,-8.0,1.9
5.912,2.7,-10.7,2.1
6.0,2.8,-16.8,2.8
6.002,1.8,-22.7,2.5
6.005,-1.6,-15.0,3.6
6.006,-0.5,-8.3,3.0
6.008,1.2,-4.0,2.6
6.1,2.0,-3.3,2.7
6.101,1.3,-7.1,2.3
6.111,0.7,-10.2,2.3
6.114,0.9,-9.0,3.7
6.116,1.4,-8.0,5.0
6.208,1.0,-9.7,4.8
6.209,0.2,-10.7,3.7
6.211,0.2,-10.6,2.7
6.213,0.5,-10.0,1.9
6.214,0.8,-8.8,1.8
6.299,0.9,-8.6,1.4
6.301,1.0,-8.9,1.0
6.307,1.0,-8.9,1.0
6.309,0.6,-9.8,1.0
6.4,0.5,-10.4,1.5
6.402,0.5,-10.2,2.2
6.404,0.7,-9.7,3.0
6.406,0.6,-9.4,3.5
6.407,0.6,-8.8,3.9
6.501,0.6,-8.4,4.1
6.503,0.7,-8.1,3.9
6.513,1.0,-8.2,3.5
6.514,1.3,-8.7,3.0
6.516,1.5,-9.2,2.4
6.6,1.6,-9.6,2.0
6.602,1.5,-9.8,1.7
6.604,1.3,-9.9,1.6
6.605,1.1,-9.9,1.6
6.607,0.9,-9.8,1.6
6.7,0.8,-9.4,2.0
6.701,0.8,-9.2,2.0
6.707,1.0,-9.5,2.1
6.709,1.1,-9.6,2.3
6.711,1.3,-9.3,2.6
6.8,1.4,-9.1,2.8
6.801,1.3,-8.9,3.0
6.803,1.5,-8.7,3.2
6.805,1.5,-8.8,3.1
6.806,1.5,-9.0,3.1
6.899,1.6,-9.0,3.0
6.909,1.6,-9.2,2.8
6.92,1.5,-9.4,2.6
6.924,1.5,-9.3,2.5
6.925,1.5,-9.3,2.4
7.0,1.5,-9.3,2.3
7.001,1.6,-9.4,2.3
7.003,1.6,-9.3,2.3
7.005,1.6,-9.3,2.5
7.006,1.5,-9.3,2.6
7.124,1.4,-9.2,2.7
7.125,1.3,-9.1,2.8
7.127,1.3,-9.1,2.9
7.129,1.2,-9.1,2.9
7.13,1.2,-9.0,2.9
7.201,1.3,-9.1,2.8
7.203,1.3,-9.2,2.7
7.205,1.4,-9.2,2.6
7.206,1.4,-9.2,2.5
7.212,1.4,-9.3,2.4
7.225,1.4,-9.4,2.3
7.297,1.4,-9.3,2.3
7.299,1.4,-9.4,2.4
7.301,1.4,-9.3,2.6
7.302,1.4,-9.2,2.7
7.401,1.4,-9.1,2.7
7.403,1.4,-9.1,2.8
7.406,1.4,-9.1,2.8
7.408,1.4,-9.0,2.9
7.41,1.4,-9.0,2.8
7.5,1.4,-9.3,2.7
7.502,1.5,-9.3,2.6
7.504,1.6,-9.2,2.7
7.507,1.5,-9.2,2.6
7.508,1.4,-9.3,2.5
7.599,1.4,-9.3,2.5
7.601,1.4,-9.3,2.6
7.603,1.4,-9.3,2.7
7.604,1.4,-9.2,2.6
7.616,1.4,-9.3,2.6
7.699,1.4,-9.3,2.6
7.704,1.4,-9.2,2.6
7.706,1.4,-9.3,2.6
7.708,1.4,-9.3,2.6
7.709,1.4,-9.3,2.6
7.799,1.4,-9.3,2.7
7.801,1.4,-9.2,2.7
7.803,1.4,-9.2,2.7
7.804,1.5,-9.3,2.7
7.806,1.5,-9.3,2.7
7.924,1.5,-9.2,2.6
7.925,1.5,-9.3,2.6
7.927,1.4,-9.3,2.6
7.929,1.4,-9.3,2.6
8.001,1.4,-9.3,2.6
8.007,1.4,-9.2,2.6
8.009,1.5,-9.2,2.6
8.011,1.5,-9.3,2.7
8.023,1.5,-9.3,2.7
8.025,1.5,-9.2,2.7
8.028,1.4,-9.2,2.7
8.098,1.4,-9.2,2.6
8.1,1.4,-9.2,2.7
8.102,1.4,-9.2,2.6
8.199,1.4,-9.4,2.6
8.201,1.6,-9.3,2.7
8.203,1.5,-9.2,2.6
8.204,1.4,-9.3,2.6
8.209,1.4,-9.2,2.6
8.299,1.4,-9.3,2.6
8.301,1.4,-9.3,2.6
8.304,1.5,-9.2,2.7
8.306,1.5,-9.3,2.6
8.308,1.5,-9.3,2.6
8.399,1.5,-9.2,2.6
8.401,1.4,-9.2,2.6
8.402,1.4,-9.3,2.6
8.414,1.5,-9.3,2.7
8.417,1.4,-9.3,2.7
8.499,1.5,-9.2,2.7
8.501,1.4,-9.2,2.7
8.502,1.4,-9.2,2.6
8.511,1.5,-9.3,2.6
8.514,1.5,-9.3,2.6
8.624,1.5,-9.3,2.6
8.626,1.4,-9.3,2.6
8.627,1.4,-9.3,2.6
8.629,1.5,-9.2,2.6
8.631,1.4,-9.3,2.6
8.7,1.5,-9.2,2.7
8.702,1.4,-9.3,2.6
8.704,1.5,-9.3,2.7
8.705,1.5,-9.2,2.7
8.711,1.5,-9.2,2.6
8.713,1.5,-9.3,2.6
8.798,1.4,-9.3,2.6
8.81,1.4,-9.3,2.7
8.812,1.4,-9.2,2.6
8.815,1.4,-9.4,2.5
8.898,1.5,-9.3,2.6
8.9,1.6,-9.2,2.7
8.904,1.4,-9.2,2.6
8.905,1.4,-9.3,2.6
8.908,1.4,-9.2,2.7
9.0,1.4,-9.3,2.7
9.001,1.5,-9.3,2.7
9.003,1.5,-9.2,2.7
9.005,1.5,-9.3,2.7
9.006,1.5,-9.2,2.7
9.099,1.5,-9.1,2.7
9.101,1.4,-9.2,2.7
9.102,1.4,-9.3,2.6
9.104,1.4,-9.3,2.6
9.106,1.4,-9.3,2.5
9.199,1.4,-9.4,2.5
9.211,1.4,-9.3,2.6
9.213,1.4,-9.2,2.6
9.216,1.4,-9.2,2.6
9.218,1.4,-9.3,2.7
9.302,1.4,-9.2,2.7
9.304,1.4,-9.2,2.7
9.306,1.4,-9.3,2.6
9.307,1.4,-9.3,2.6
9.309,1.4,-9.3,2.6
9.399,1.4,-9.2,2.6
9.401,1.4,-9.3,2.6
9.402,1.4,-9.2,2.6
9.404,1.4,-9.3,2.6
9.406,1.4,-9.3,2.5
9.499,1.4,-9.3,2.6
9.501,1.4,-9.3,2.6
9.502,1.4,-9.3,2.5
9.504,1.4,-9.3,2.6
9.506,1.4,-9.2,2.7
9.598,1.3,-9.3,2.6
9.6,1.4,-9.3,2.6
9.601,1.4,-9.2,2.7
9.603,1.4,-9.3,2.6
9.699,1.4,-9.2,2.7
9.7,1.4,-9.2,2.6
9.702,1.4,-9.3,2.6
9.704,1.4,-9.2,2.6
9.711,1.4,-9.3,2.5
9.799,1.4,-9.4,2.5
9.8,1.4,-9.3,2.5
9.802,1.4,-9.3,2.5
9.804,1.4,-9.3,2.6
9.805,1.4,-9.2,2.5
9.899,1.4,-9.4,2.6
9.9,1.3,-9.3,2.7
9.902,1.4,-9.2,2.7
9.904,1.4,-9.3,2.6
9.905,1.4,-9.2,2.6
9.999,1.3,-9.3,2.8
10.001,1.4,-9.1,2.7
10.002,1.5,-9.3,2.7
10.004,1.4,-9.3,2.6
10.009,1.3,-9.5,2.6
10.108,1.3,-9.6,2.8
10.11,1.6,-9.4,3.0
10.111,1.8,-10.2,2.4
10.113,1.8,-10.2,2.5
10.115,1.6,-8.9,2.7
10.203,1.8,-8.8,3.0
10.205,1.6,-9.0,3.1
10.207,1.7,-8.9,3.0
10.208,1.8,-8.7,2.9
10.21,1.9,-9.3,3.1
10.299,1.7,-9.9,2.9
10.3,1.7,-11.1,2.2
10.302,1.8,-11.3,2.6
10.304,2.0,-10.8,3.6
10.315,1.9,-11.0,4.0
10.398,1.7,-11.5,3.7
10.401,1.6,-11.6,3.6
10.403,2.0,-12.0,4.0
10.405,2.4,-11.8,4.4
10.408,2.5,-11.1,4.5
10.499,2.7,-10.1,4.9
10.5,3.4,-10.0,5.3
10.502,3.6,-10.0,5.3
10.504,3.8,-9.0,5.2
10.505,3.7,-6.5,6.0
10.599,4.5,-4.6,6.6
10.6,4.6,-3.8,6.5
10.602,4.5,-3.1,6.6
10.603,5.2,-1.5,7.0
10.605,6.0,-0.4,7.1
10.698,6.0,-0.8,6.4
10.7,5.5,-0.5,6.7
10.702,5.3,2.3,7.3
10.713,5.1,3.8,6.7
10.715,5.4,2.4,5.3
10.799,5.5,2.1,4.4
10.801,5.3,4.9,4.7
10.803,4.8,7.6,5.0
10.804,4.8,7.6,4.6
10.806,5.5,5.6,3.6
10.898,5.8,5.0,3.0
10.9,5.2,6.8,3.8
10.902,4.2,7.8,4.2
10.903,4.6,6.8,3.4
10.91,5.8,6.0,3.1
10.999,5.2,7.0,2.9
11.006,4.9,8.0,3.1
11.007,5.5,7.9,2.7
11.009,5.2,6.9,2.0
11.011,5.2,7.0,1.7
11.098,5.3,8.5,1.8
11.104,5.0,9.0,1.7
11.116,4.6,8.1,1.5
11.138,4.8,7.7,1.3
11.146,4.8,8.1,1.3
11.25,4.9,8.2,1.3
11.255,5.2,8.1,1.2
11.257,4.5,8.1,0.8
11.259,4.4,8.7,0.8
11.321,4.6,9.6,1.2
11.322,3.9,9.2,1.2
11.328,4.2,8.7,1.1
11.33,4.2,8.4,1.1
11.332,4.0,8.4,1.0
11.399,3.8,8.9,1.2
11.401,4.2,8.5,1.4
11.403,4.5,8.2,1.4
11.404,3.9,8.2,1.2
11.406,3.7,8.9,1.1
11.499,4.2,9.6,1.0
11.5,4.0,9.5,1.0
11.512,3.5,8.8,0.7
11.514,3.9,8.5,0.6
11.516,3.8,8.6,0.7
11.598,3.7,9.0,0.8
11.6,3.5,8.9,0.8
11.602,4.1,9.0,0.4
11.603,4.1,8.6,0.1
11.608,4.4,8.7,0.5
11.702,4.4,9.0,0.7
11.709,4.4,9.1,0.7
11.711,4.3,8.6,0.2
11.712,4.5,8.1,-0.0
11.714,4.4,8.7,0.2
11.798,4.1,8.7,0.4
11.8,4.2,8.6,0.5
11.802,4.3,8.5,0.3
11.803,3.9,8.8,0.1
11.805,4.0,8.6,0.1
11.899,3.9,8.9,0.4
11.91,4.1,8.8,0.5
11.912,3.9,8.8,0.5
11.914,3.6,8.5,0.3
11.917,3.9,8.7,0.3
11.999,3.6,8.6,0.0
12.001,4.2,9.5,0.3
12.003,5.1,8.5,0.2
12.005,3.3,8.3,0.3
12.006,2.8,9.3,0.4
12.098,5.0,8.8,0.3
12.099,4.5,8.2,0.2
12.101,4.1,8.5,0.3
12.103,4.4,9.0,0.4
12.105,4.1,9.1,0.4
12.2,3.8,9.0,0.4
12.202,4.1,9.1,0.5
12.203,4.0,9.1,0.5
12.209,3.9,8.9,0.4
12.211,4.1,8.7,0.3
12.301,4.3,8.7,0.3
12.302,4.3,8.9,0.2
12.309,4.3,9.1,0.3
12.311,5.5,8.6,-2.3
12.312,3.3,9.3,1.6
