vertical_Accel_x,vertical_Accel_y,vertical_Accel_z,accel_time_list
3.306,-4.924,8.5,0.0
2.453,-4.812,8.5,0.002
1.09,-4.027,8.067,0.008
2.845,-4.414,8.333,0.012
1.861,-4.41,8.367,0.081
2.184,-4.804,8.367,0.083
2.78,-5.355,8.033,0.085
2.829,-5.518,7.7,0.09
1.549,-4.463,8.467,0.179
0.005,-4.228,8.91,0.181
0.556,-4.296,9.113,0.183
0.756,-4.296,9.013,0.184
0.292,-4.036,8.884,0.278
0.349,-4.132,8.797,0.284
0.441,-4.167,8.781,0.285
0.553,-4.359,8.607,0.287
0.589,-4.299,8.678,0.378
0.625,-4.239,8.75,0.38
0.717,-4.274,8.734,0.382
0.737,-4.285,8.873,0.383
0.68,-4.189,8.96,0.478
0.568,-4.143,8.837,0.48
0.441,-4.167,8.781,0.481
0.676,-4.107,8.752,0.483
0.948,-3.986,8.795,0.578
0.728,-3.975,8.755,0.579
0.748,-3.986,8.895,0.581
0.824,-4.093,8.948,0.583
0.696,-4.118,8.892,0.68
0.696,-4.118,8.892,0.682
0.604,-4.082,8.908,0.684
0.588,-4.153,8.976,0.693
0.588,-4.153,8.976,0.778
0.68,-4.189,8.96,0.78
0.604,-4.082,8.908,0.782
0.4,-4.0,8.8,0.783
0.4,-4.0,8.8,0.879
0.528,-3.975,8.855,0.882
0.6,-4.0,8.7,0.883
0.524,-3.893,8.648,0.885
0.728,-3.975,8.755,0.993
0.744,-3.904,8.687,0.995
0.836,-3.94,8.671,0.997
0.836,-3.94,8.671,0.998
0.795,-3.772,8.69,1.082
1.015,-3.783,8.73,1.084
0.932,-4.057,8.863,1.094
0.696,-4.118,8.892,1.096
2.527,-4.243,8.833,1.179
2.794,-4.176,8.9,1.184
2.929,-4.218,9.0,1.186
2.665,-4.359,9.0,1.187
2.396,-4.351,8.867,1.278
2.216,-4.296,8.633,1.28
2.218,-4.371,8.4,1.281
2.306,-4.324,8.3,1.283
0.412,-3.847,8.524,1.382
-0.299,-3.946,8.402,1.384
-0.215,-3.817,7.97,1.385
0.368,-3.743,8.037,1.387
1.802,-3.24,7.753,1.48
1.438,-3.528,8.357,1.49
1.017,-4.223,7.426,1.491
-0.332,-3.094,6.902,1.493
-0.343,-3.186,6.729,1.58
0.667,-3.494,6.069,1.581
1.471,-3.757,5.286,1.583
-0.308,-3.373,7.567,1.585
1.8,-6.872,7.012,1.682
0.8,-8.806,6.064,1.684
2.563,-9.553,5.069,1.689
2.445,-9.48,6.104,1.69
2.604,-4.426,11.013,1.78
1.874,-3.143,10.522,1.781
1.439,-2.735,8.917,1.783
1.435,-2.709,7.404,1.785
1.147,-3.099,7.228,1.887
0.326,-5.691,5.956,1.889
-0.668,-8.673,4.239,1.891
-2.147,-10.181,2.812,1.892
-2.085,-7.55,5.219,1.994
-2.38,-6.34,6.0,1.995
-3.938,-5.076,6.552,1.997
-5.017,-4.094,6.929,2.005
-1.28,-4.352,6.764,2.08
-5.14,-5.616,6.712,2.082
-6.616,-8.238,5.139,2.091
-7.98,-9.9,4.14,2.092
-5.902,-13.972,-1.875,2.185
-5.232,-14.681,-1.429,2.187
-4.237,-15.125,-0.38,2.188
-3.289,-14.84,0.376,2.19
-2.3,-13.485,-7.677,2.279
-2.5,-12.485,-7.477,2.281
-2.2,-11.585,-6.777,2.283
-1.3,-11.1,-5.6,2.284
1.878,-8.17,-7.165,2.383
2.79,-6.519,-7.438,2.385
3.086,-5.469,-7.577,2.386
3.014,-4.931,-7.123,2.388
1.869,-3.424,-7.378,2.479
2.143,-2.986,-7.971,2.481
3.198,-2.982,-8.392,2.483
3.699,-2.274,-9.239,2.484
3.441,-3.226,-10.281,2.584
3.437,-4.221,-11.837,2.588
3.699,-5.174,-12.739,2.59
3.748,-5.411,-12.208,2.6
3.992,-8.725,-13.422,2.683
4.494,-8.794,-12.241,2.685
4.11,-8.961,-8.702,2.687
3.638,-8.164,-8.068,2.688
1.382,-8.618,-7.145,2.779
0.356,-10.564,-7.869,2.781
-0.26,-11.8,-7.32,2.783
-0.325,-11.345,-5.824,2.784
-3.119,-11.234,-2.525,2.879
-1.873,-10.271,-2.947,2.881
-3.105,-9.132,-2.695,2.883
-1.807,-8.664,-2.353,2.884
-3.385,-8.157,-1.764,2.979
-3.477,-7.385,-2.496,2.981
-3.153,-7.102,-2.375,2.99
-3.347,-7.198,-2.125,2.992
-3.647,-6.219,-2.737,3.079
-3.966,-6.697,-2.642,3.08
-4.205,-7.445,-2.576,3.091
-4.041,-7.765,-2.585,3.179
-5.207,-8.662,-3.027,3.182
-6.29,-9.311,-4.148,3.184
-4.391,-8.92,-4.523,3.19
-1.741,-8.265,-3.885,3.278
-0.473,-6.859,-3.068,3.281
-1.091,-6.664,-4.721,3.283
-2.921,-9.183,-5.351,3.285
-1.71,-11.824,-5.128,3.378
-2.729,-12.346,-7.298,3.381
-2.511,-11.836,-8.021,3.391
-2.33,-9.959,-7.291,3.392
0.55,-6.703,-8.356,3.478
1.905,-6.129,-7.363,3.481
1.113,-6.376,-8.164,3.483
1.694,-5.045,-8.976,3.488
1.398,-2.847,-9.978,3.578
1.545,-2.732,-9.525,3.581
2.049,-4.237,-11.469,3.583
2.637,-5.121,-12.937,3.584
2.423,-5.079,-13.143,3.682
4.165,-6.332,-14.185,3.686
4.159,-5.659,-9.688,3.687
2.384,-4.851,-7.243,3.689
2.23,-6.934,-6.145,3.778
1.526,-15.015,-10.538,3.794
0.679,-13.904,-9.368,3.796
0.555,-10.449,-7.883,3.798
-3.162,-10.958,-5.333,3.878
-1.651,-10.694,-3.554,3.882
-1.539,-10.03,-2.274,3.883
-0.7,-8.392,-1.438,3.885
-3.638,-7.246,-2.109,3.977
-3.869,-6.273,-4.654,3.981
-3.61,-5.983,-5.133,3.982
-3.718,-5.979,-5.043,3.984
-3.9,-4.7,-5.7,4.078
-4.144,-4.192,-4.88,4.081
-3.792,-4.056,-4.64,4.083
-2.804,-4.072,-4.58,4.084
-1.576,-4.268,-5.02,4.178
-0.26,-5.18,-6.1,4.189
0.236,-5.852,-6.28,4.191
0.5,-6.0,-6.5,4.201
1.584,-5.673,-7.119,4.278
1.312,-4.331,-9.825,4.281
1.06,-3.712,-10.468,4.283
1.107,-3.234,-10.369,4.284
3.34,1.354,-9.84,4.403
3.424,1.047,-8.624,4.411
3.645,1.409,-8.145,4.412
3.949,1.693,-7.749,4.414
4.056,2.262,-7.456,4.479
4.259,2.375,-6.759,4.483
3.66,2.146,-6.06,4.484
3.208,2.039,-5.208,4.486
3.385,1.864,-4.385,4.498
3.636,2.622,-3.004,4.582
3.458,2.811,-2.482,4.583
3.705,3.924,-1.252,4.585
3.253,4.418,-1.367,4.677
3.267,3.782,-0.493,4.68
2.555,3.364,-1.345,4.682
2.827,2.482,-4.073,4.778
5.064,2.839,-7.362,4.78
-0.94,1.08,-8.3,4.783
3.608,2.318,-10.124,4.785
-7.57,-2.228,-10.495,4.882
-20.698,7.03,-11.681,4.884
-17.749,-29.403,-32.886,4.888
-3.799,6.165,-38.69,4.889
35.041,7.432,-8.514,4.998
27.637,17.593,5.033,5.0
5.443,0.451,-16.337,5.003
-4.057,-12.586,-15.571,5.005
12.647,-0.194,-14.657,5.078
3.404,-0.109,-23.923,5.079
-2.027,8.907,-15.568,5.087
-8.296,-1.155,-5.335,5.092
-2.166,-4.451,-3.242,5.178
18.634,-13.151,-6.142,5.18
2.302,-6.458,-1.333,5.189
-0.285,-6.705,0.372,5.191
9.411,-21.521,9.964,5.278
16.613,-11.006,12.639,5.279
1.112,-3.113,5.452,5.283
-0.71,-4.572,3.824,5.298
-2.523,-3.507,5.14,5.378
1.904,-5.516,5.849,5.379
11.892,-6.868,3.601,5.382
5.641,-3.766,5.032,5.388
3.195,-1.174,1.246,5.486
1.576,-1.5,-1.294,5.488
12.768,-9.034,-1.087,5.491
14.791,-9.996,2.723,5.493
17.708,-12.345,11.753,5.586
17.694,-8.316,8.11,5.588
9.141,-9.324,1.865,5.591
10.706,-10.284,2.69,5.593
10.575,-7.29,2.688,5.678
7.92,-3.4,2.06,5.68
4.314,-2.929,-0.843,5.695
4.175,-4.19,-1.512,5.697
4.72,-4.5,-1.96,5.778
4.544,-4.411,-2.689,5.779
5.149,-4.922,-2.458,5.786
7.409,-7.822,-4.138,5.787
14.035,-12.242,-5.218,5.877
15.265,-17.858,-5.182,5.879
6.747,-8.665,1.965,5.886
4.541,-9.194,-0.506,5.888
2.459,-12.006,1.106,5.978
1.731,-12.043,2.31,5.979
0.243,-9.684,1.251,5.983
2.349,-8.567,0.702,5.984
4.1,-8.4,1.7,6.077
4.422,-7.618,1.955,6.079
4.21,-7.527,1.08,6.1
4.571,-7.886,1.057,6.101
3.817,-8.51,0.928,6.178
4.468,-8.84,1.012,6.182
4.251,-9.13,0.484,6.188
3.989,-8.762,0.03,6.189
4.208,-8.478,-0.197,6.277
4.625,-8.688,0.031,6.279
6.283,-8.89,0.672,6.282
5.678,-8.424,0.759,6.284
4.788,-8.259,1.259,6.377
4.398,-8.31,2.043,6.379
4.678,-7.308,2.975,6.386
4.492,-7.139,3.773,6.502
4.924,-7.182,3.882,6.504
6.129,-7.553,3.553,6.514
5.851,-7.345,2.178,6.517
5.994,-7.729,1.829,6.6
6.106,-7.571,1.271,6.603
5.461,-7.296,1.363,6.605
4.741,-7.694,2.394,6.608
7.214,-6.531,1.698,6.609
8.169,-6.557,2.49,6.614
4.992,-8.194,3.283,6.675
6.794,-6.321,-2.338,6.678
6.483,-7.762,-1.813,6.777
5.57,-10.477,-3.068,6.782
5.179,-10.309,-2.972,6.784
4.281,-12.008,-2.369,6.789
2.844,-12.522,-2.756,6.878
2.893,-11.587,-2.867,6.887
3.416,-11.798,-3.244,6.895
6.169,-12.904,-2.711,6.898
1.032,-11.02,-1.976,6.977
3.452,-10.02,-6.036,6.979
6.184,-9.44,-8.112,6.981
-1.42,-4.56,-7.7,6.984
-1.613,-5.204,-7.926,7.077
-0.774,-6.091,-5.848,7.081
0.752,-5.983,-6.596,7.084
4.017,-7.761,-7.465,7.088
3.47,-4.926,-8.726,7.178
4.041,-4.652,-8.152,7.18
4.748,-4.57,-7.97,7.182
3.044,-3.211,-8.111,7.19
0.681,-1.564,-7.982,7.276
0.319,-0.156,-6.978,7.282
-0.162,0.957,-7.491,7.283
0.67,1.555,-6.908,7.287
-0.064,1.119,-7.018,7.377
0.759,0.205,-7.33,7.381
1.731,-0.036,-7.844,7.384
2.198,-0.427,-7.433,7.393
1.891,-0.136,-7.464,7.477
2.044,-0.845,-8.215,7.479
2.849,-1.664,-8.716,7.48
3.185,-0.118,-9.162,7.484
3.0,0.1,-10.1,7.577
2.816,-0.449,-10.505,7.58
3.223,-1.369,-10.208,7.581
3.182,-1.447,-10.527,7.594
4.557,-1.287,-9.348,7.678
3.883,-2.035,-9.539,7.681
3.191,-2.117,-9.97,7.683
-3.214,-9.198,-8.361,7.686
-1.449,1.364,-6.084,7.786
14.224,9.255,-9.975,7.788
10.816,-5.155,-15.305,7.791
-7.927,-7.609,-7.691,7.794
-2.663,0.915,-7.737,7.882
2.985,3.574,-9.285,7.884
5.663,3.085,-9.263,7.886
1.237,1.515,-9.537,7.891
0.193,1.437,-9.593,7.979
1.356,1.822,-9.856,7.982
3.17,2.648,-9.67,7.984
2.222,3.189,-8.622,8.0
1.822,2.589,-8.722,8.109
1.87,2.348,-9.47,8.11
2.296,2.119,-9.596,8.112
6.844,1.578,-9.744,8.178
1.544,-1.822,-11.544,8.18
2.452,1.041,-8.852,8.183
2.211,1.844,-8.511,8.188
1.511,2.244,-8.511,8.277
0.022,3.189,-8.122,8.278
2.759,2.404,-10.059,8.28
2.556,-0.078,-9.956,8.282
-0.241,-2.496,-10.159,8.379
8.033,6.533,-10.233,8.381
-0.37,1.152,-9.23,8.384
1.578,1.211,-9.578,8.393
2.736,4.436,-7.209,8.477
2.789,5.109,-8.567,8.478
-0.155,1.345,-9.036,8.486
1.556,-0.664,-12.969,8.491
1.024,3.482,-10.473,8.577
-0.549,3.345,-7.952,8.579
0.867,3.297,-9.101,8.581
0.547,3.375,-9.142,8.582
1.152,4.335,-8.855,8.677
0.431,3.023,-9.392,8.679
0.821,3.612,-9.363,8.68
0.611,1.601,-10.833,8.686
-0.73,-3.495,-8.339,8.777
0.024,1.162,-9.048,8.779
0.756,1.238,-9.912,8.798
0.118,1.219,-9.136,8.8
0.919,1.807,-9.719,8.876
3.259,2.204,-11.259,8.878
4.219,7.807,-6.719,8.883
1.059,1.504,-9.959,8.884
5.57,1.187,-11.67,8.977
3.833,1.203,-9.733,8.983
-3.349,0.522,-5.151,8.985
3.355,2.102,-10.055,8.986
3.319,3.707,-8.719,9.077
2.926,0.97,-9.026,9.078
2.904,1.481,-8.604,9.08
1.559,0.404,-9.359,9.082
1.156,0.422,-8.456,9.18
2.87,1.248,-8.37,9.19
2.77,1.648,-10.47,9.192
1.952,1.041,-9.352,9.194
2.893,3.247,-9.767,9.277
0.229,0.064,-9.611,9.282
0.595,3.002,-10.143,9.283
0.742,3.163,-10.095,9.285
3.155,3.451,-8.683,9.377
1.734,1.747,-9.051,9.379
2.864,2.713,-8.296,9.381
2.564,2.913,-9.096,9.382
2.489,3.198,-8.634,9.476
2.891,3.038,-8.687,9.478
3.149,2.73,-8.823,9.48
2.923,2.345,-9.185,9.481
2.032,4.124,-9.44,9.577
1.032,3.624,-9.04,9.579
1.34,3.38,-9.2,9.585
1.068,3.576,-8.96,9.587
1.5,3.5,-9.2,9.676
0.84,2.88,-8.9,9.678
0.416,3.112,-9.32,9.68
1.108,3.356,-9.36,9.681
2.471,0.536,-10.489,9.775
2.302,1.051,-9.778,9.777
-0.051,1.024,-7.111,9.779
0.598,2.149,-10.022,9.78
1.571,2.336,-9.589,9.878
1.34,2.12,-9.6,9.879
1.089,1.544,-9.411,9.881
0.947,1.873,-9.233,9.883
1.809,0.06,-10.289,10.008
1.767,0.685,-10.16,10.012
1.869,1.897,-9.417,10.014
1.357,1.57,-9.392,10.02
1.424,1.155,-9.451,10.078
1.67,1.553,-9.596,10.079
1.547,1.354,-9.524,10.081
1.061,0.994,-9.407,10.083
1.44,1.42,-9.8,10.178
1.551,1.476,-9.589,10.18
1.363,1.761,-9.544,10.182
1.341,0.818,-9.55,10.183
1.679,1.013,-9.685,10.278
1.702,1.712,-9.658,10.28
1.653,1.046,-9.776,10.281
1.406,1.136,-9.673,10.296
2.018,0.719,-9.778,10.38
2.126,2.367,-9.209,10.381
1.513,1.683,-9.505,10.383
0.95,0.078,-10.039,10.385
0.991,0.896,-10.089,10.482
1.34,2.12,-9.6,10.484
1.351,1.876,-9.589,10.486
0.724,0.262,-10.256,10.487
2.217,2.163,-9.199,10.577
2.73,0.347,-8.904,10.579
0.161,-0.75,-8.686,10.581
0.825,0.911,-8.93,10.582
2.006,2.536,-8.673,10.678
1.001,1.356,-9.479,10.679
1.328,1.779,-8.867,10.69
2.198,2.388,-9.442,10.691
1.126,3.629,-9.304,10.787
1.753,3.939,-9.348,10.788
1.095,3.642,-9.663,10.79
1.274,3.731,-9.676,10.791
0.358,2.997,-8.785,10.903
0.453,2.879,-8.268,10.909
1.289,3.204,-8.386,10.911
1.089,2.684,-8.526,10.912
1.447,1.233,-9.576,11.004
1.579,1.221,-9.626,11.006
2.347,1.813,-10.136,11.008
1.753,1.127,-9.944,11.014
0.737,1.423,-8.699,11.075
-0.032,1.052,-9.229,11.084
1.316,1.184,-10.105,11.086
1.658,1.222,-10.213,11.088
7.307,7.353,-12.033,11.178
-1.776,0.762,-7.556,11.18
1.258,1.029,-9.222,11.181
0.729,1.064,-9.711,11.183
2.298,3.46,-8.047,11.285
1.574,2.715,-8.462,11.287
1.757,2.691,-8.136,11.289
3.368,4.094,-9.002,11.291
3.2,2.8,-9.4,11.377
3.027,3.318,-8.727,11.379
2.782,2.755,-8.682,11.38
2.691,3.527,-8.391,11.476
2.527,3.418,-8.427,11.488
2.809,3.573,-8.509,11.489
2.573,2.582,-8.873,11.491
0.924,2.768,-8.88,11.576
3.14,6.48,-7.9,11.583
-1.488,3.984,-7.44,11.584
0.736,0.852,-9.82,11.586
1.013,1.407,-10.567,11.708
1.287,0.493,-10.233,11.715
-0.138,-0.869,-9.978,11.744
1.249,-0.076,-11.011,11.746
6.967,5.733,-11.333,11.811
0.273,1.087,-7.867,11.814
1.098,1.649,-9.822,11.816
1.016,1.558,-8.144,11.817
-1.589,1.136,-8.234,11.878
0.542,2.563,-10.795,11.889
3.253,5.459,-10.708,11.891
0.547,2.681,-8.312,11.894
1.211,3.776,-10.254,11.989
1.942,5.003,-8.715,11.995
1.811,4.136,-8.734,11.996
1.537,4.285,-8.398,11.998
1.232,3.067,-8.581,12.077
1.195,3.362,-8.623,12.082
0.711,3.416,-8.774,12.084
1.368,3.633,-9.019,12.086
0.747,3.081,-9.012,12.177
1.1,1.96,-10.28,12.181
4.468,1.893,-13.699,12.182
0.384,6.206,-6.529,12.188
-0.637,2.955,-8.922,12.281
1.553,3.439,-9.348,12.285
0.868,3.093,-8.799,12.286
0.579,2.508,-9.073,12.288
1.476,0.838,-10.044,12.376
1.547,2.173,-9.533,12.379
1.469,2.384,-9.311,12.381
0.667,0.833,-9.333,12.382
1.26,0.68,-9.7,12.485
6.422,3.211,-10.478,12.495
-1.109,-0.904,-7.989,12.497
-0.036,-0.918,-10.256,12.498
4.138,2.869,-10.322,12.576
1.816,0.458,-9.744,12.579
0.613,-0.293,-8.867,12.581
1.044,1.022,-9.156,12.602
2.007,1.453,-9.633,12.677
1.769,1.284,-9.511,12.68
1.324,1.562,-9.256,12.681
1.598,1.649,-9.422,12.687
1.462,0.931,-9.778,12.776
1.256,0.878,-9.844,12.783
1.213,2.007,-9.267,12.784
0.462,2.431,-9.078,12.787
0.622,1.811,-8.478,12.876
1.856,0.178,-10.544,12.879
0.731,0.216,-10.389,12.881
-1.744,0.378,-8.844,12.882
2.541,4.918,-10.05,12.998
-0.897,1.068,-8.937,13.002
0.427,0.523,-8.188,13.015
1.042,3.174,-8.829,13.019
-0.286,3.575,-8.809,13.1
0.058,2.274,-8.974,13.104
0.554,2.83,-9.296,13.106
0.826,3.409,-10.344,13.176
0.742,3.143,-10.235,13.177
1.574,-3.609,-14.056,13.181
0.958,6.117,-6.945,13.182
1.021,7.512,-5.787,13.276
0.047,4.781,-8.612,13.277
1.195,4.702,-8.743,13.281
1.095,3.782,-8.683,13.287
1.253,3.339,-9.548,13.351
1.158,3.557,-9.365,13.352
0.563,3.235,-8.962,13.364
0.716,3.114,-9.231,13.374
