vertical_Accel_x,vertical_Accel_y,vertical_Accel_z,accel_time_list
0.258,-1.784,-9.2,0.0
1.022,-1.018,-9.5,0.001
0.06,-0.804,-9.9,0.003
-0.467,-1.727,-9.8,0.005
0.571,-1.313,-10.0,0.127
0.786,-0.861,-9.8,0.128
-0.35,-1.295,-9.8,0.13
-0.057,-0.726,-9.7,0.135
0.59,-0.901,-9.8,0.137
0.687,-0.371,-9.6,0.228
0.08,-0.902,-9.6,0.23
0.002,-1.02,-9.5,0.231
0.14,-1.196,-9.6,0.237
0.316,-1.058,-9.7,0.239
0.14,-1.196,-9.7,0.241
0.12,-1.098,-9.8,0.327
0.022,-1.118,-9.8,0.329
0.022,-1.118,-9.6,0.33
0.159,-1.294,-9.7,0.332
0.297,-1.47,-9.7,0.344
0.219,-1.588,-9.6,0.427
0.239,-1.686,-9.6,0.428
0.473,-1.333,-9.6,0.43
0.354,-0.745,-9.5,0.432
0.375,-1.352,-9.5,0.433
0.7,-2.2,-9.5,0.527
0.7,-1.4,-9.2,0.529
0.2,0.9,-9.1,0.53
-0.8,0.8,-9.3,0.546
0.0,0.8,-9.5,0.549
0.589,0.391,-9.6,0.627
0.353,0.235,-9.0,0.628
0.531,0.607,-8.3,0.63
0.924,1.038,-7.5,0.632
0.945,1.646,-6.8,0.633
1.092,2.362,-6.4,0.727
0.962,3.608,-5.7,0.729
0.438,4.692,-5.3,0.73
1.269,6.946,-3.9,0.74
3.408,11.038,-2.7,0.742
9.814,8.325,-0.797,0.828
6.856,7.201,-2.189,0.829
8.156,5.349,-1.169,0.831
10.267,7.167,0.833,0.832
11.129,5.405,0.488,0.834
9.033,4.944,-0.045,0.927
9.297,4.596,0.85,0.929
9.72,4.793,1.137,0.93
9.786,4.915,1.164,0.932
9.962,2.162,1.137,0.934
10.0,1.5,3.1,1.026
9.42,1.62,2.963,1.028
8.378,1.978,2.651,1.029
7.559,2.559,2.688,1.031
7.99,2.79,2.669,1.127
9.727,2.327,3.808,1.128
9.949,1.849,4.057,1.13
8.394,2.094,3.341,1.139
8.459,2.159,3.488,1.148
9.135,0.358,4.253,1.227
8.307,0.363,4.188,1.228
8.191,0.449,4.283,1.233
8.379,0.467,5.122,1.235
8.869,-0.523,4.992,1.237
9.354,-0.485,4.838,1.327
8.9,0.0,4.7,1.328
8.969,-0.223,4.992,1.33
8.808,-0.469,4.877,1.332
7.938,-0.146,4.885,1.333
7.817,-1.589,5.304,1.426
8.168,-1.845,6.142,1.433
8.147,-2.02,6.312,1.435
8.165,-2.11,6.516,1.437
7.394,-1.629,6.448,1.438
7.894,-2.229,5.948,1.527
7.772,-1.792,6.443,1.528
8.251,-2.556,7.538,1.538
7.872,-2.392,7.543,1.539
6.833,-1.967,7.033,1.541
6.308,-2.083,7.027,1.626
6.483,-2.111,7.196,1.628
6.647,-1.72,6.912,1.63
7.039,-1.026,5.91,1.631
7.203,-0.635,5.626,1.633
7.713,-1.442,6.503,1.726
7.81,-1.906,6.977,1.728
7.572,-1.592,6.743,1.733
7.541,-1.349,6.46,1.735
7.475,-1.128,6.269,1.736
7.544,-1.085,6.086,1.827
7.716,-1.177,6.129,1.829
7.716,-1.177,6.129,1.831
7.702,-1.024,6.051,1.832
7.578,-1.063,5.995,1.834
7.541,-1.149,5.96,1.926
7.627,-1.196,5.982,1.936
7.661,-1.174,5.89,1.938
7.699,-1.088,5.925,1.939
7.819,-1.113,5.855,1.941
7.782,-1.199,5.82,2.033
7.854,-1.091,5.763,2.034
7.888,-1.07,5.672,2.036
7.854,-1.091,5.763,2.038
7.854,-1.091,5.763,2.039
7.854,-1.091,5.763,2.126
7.854,-1.091,5.763,2.133
7.854,-1.091,5.763,2.134
7.854,-1.091,5.763,2.137
7.854,-1.091,5.763,2.138
7.854,-1.091,5.763,2.23
7.854,-1.091,5.763,2.232
7.854,-1.091,5.763,2.234
7.816,-1.177,5.729,2.236
7.816,-1.177,5.729,2.237
7.816,-1.177,5.729,2.326
7.816,-1.177,5.729,2.328
7.816,-1.177,5.729,2.33
7.816,-1.177,5.729,2.336
7.854,-1.091,5.763,2.338
7.908,0.431,5.777,2.426
7.885,0.338,5.746,2.428
7.908,0.431,5.777,2.43
7.885,0.338,5.746,2.431
7.885,0.338,5.746,2.433
7.915,0.362,5.654,2.528
7.885,0.338,5.746,2.532
7.915,0.362,5.654,2.534
7.915,0.362,5.654,2.536
7.915,0.362,5.654,2.537
7.915,0.362,5.654,2.631
7.915,0.362,5.654,2.632
7.938,0.454,5.685,2.634
7.915,0.362,5.654,2.636
7.915,0.362,5.654,2.726
7.938,0.454,5.685,2.728
7.915,0.362,5.654,2.733
8.031,0.423,5.708,2.735
7.938,0.454,5.685,2.737
7.915,0.362,5.654,2.826
7.938,0.454,5.685,2.831
7.915,0.362,5.654,2.833
8.008,0.331,5.677,2.834
8.008,0.331,5.677,2.836
7.915,0.362,5.654,2.926
7.946,0.385,5.562,2.928
7.915,0.362,5.654,2.93
7.915,0.362,5.654,2.931
7.938,0.454,5.685,2.933
7.938,0.454,5.685,3.026
7.938,0.454,5.685,3.028
7.938,0.454,5.685,3.034
7.938,0.454,5.685,3.035
7.946,0.385,5.562,3.045
8.038,0.354,5.585,3.126
7.946,0.385,5.562,3.128
7.946,0.385,5.562,3.129
8.038,0.354,5.585,3.131
8.008,0.331,5.677,3.133
7.938,0.454,5.685,3.226
7.915,0.362,5.654,3.228
8.062,0.446,5.615,3.229
7.938,0.454,5.685,3.231
7.969,0.477,5.592,3.237
8.038,0.354,5.585,3.326
7.969,0.477,5.592,3.328
8.038,0.354,5.585,3.329
7.969,0.477,5.592,3.331
7.969,0.477,5.592,3.333
7.969,0.477,5.592,3.425
8.031,0.423,5.708,3.427
7.938,0.454,5.685,3.428
8.031,0.423,5.708,3.444
8.038,0.354,5.585,3.446
8.038,0.354,5.585,3.526
8.038,0.354,5.585,3.527
8.038,0.354,5.585,3.529
8.062,0.446,5.615,3.531
7.946,0.385,5.562,3.536
8.031,0.423,5.708,3.626
7.969,0.477,5.592,3.627
7.915,0.362,5.654,3.629
8.008,0.331,5.677,3.631
8.008,0.331,5.677,3.632
8.038,0.354,5.585,3.726
8.038,0.354,5.585,3.732
8.069,0.377,5.492,3.734
8.069,0.377,5.492,3.735
7.969,0.477,5.592,3.737
7.946,0.385,5.562,3.826
7.969,0.477,5.592,3.841
8.062,0.446,5.615,3.851
7.946,0.385,5.562,3.858
7.969,0.477,5.592,3.86
8.062,0.446,5.615,3.926
8.0,0.5,5.5,3.928
8.0,0.5,5.5,3.929
8.115,0.562,5.554,3.931
8.138,0.654,5.585,3.933
8.331,0.423,5.808,4.026
8.477,0.508,5.769,4.028
8.231,0.723,5.308,4.029
8.023,0.792,4.931,4.034
8.131,0.523,5.008,4.036
8.208,0.631,5.277,4.129
8.015,0.462,4.954,4.131
8.262,0.346,5.115,4.133
8.377,0.408,5.169,4.134
8.323,0.392,4.931,4.14
8.377,0.508,4.869,4.226
8.462,0.546,5.015,4.235
8.431,0.523,5.108,4.237
8.338,0.554,5.085,4.239
8.4,0.5,5.2,4.247
8.331,0.623,5.208,4.334
8.238,0.654,5.185,4.335
8.215,0.162,5.054,4.337
7.946,0.185,4.862,4.339
7.831,0.523,4.908,4.426
8.023,0.392,4.831,4.427
8.246,0.285,4.662,4.434
8.277,0.608,4.969,4.435
8.262,0.346,5.115,4.437
8.208,0.231,5.177,4.53
8.515,0.162,5.154,4.532
8.408,0.331,5.377,4.534
8.254,0.315,5.538,4.536
8.115,0.162,5.454,4.537
8.192,-0.031,5.323,4.626
8.485,0.038,5.546,4.636
8.823,-0.108,5.731,4.637
9.331,-0.577,6.108,4.639
9.669,-0.623,5.992,4.641
8.954,-0.085,5.238,4.726
8.546,0.685,4.862,4.731
8.223,0.692,4.431,4.733
8.546,0.385,4.462,4.734
8.238,0.854,4.585,4.736
8.231,0.923,4.708,4.833
7.785,0.538,4.246,4.835
8.062,-0.054,4.515,4.836
8.915,-0.138,4.454,4.838
8.954,-0.085,3.938,4.84
8.673,0.548,4.149,4.926
8.464,0.398,4.033,4.928
8.746,0.497,4.599,4.93
9.134,0.715,4.138,4.931
8.494,0.981,3.227,4.933
8.306,1.019,3.173,5.025
8.797,1.169,4.156,5.033
8.974,1.092,4.964,5.035
9.246,1.197,5.199,5.037
9.265,1.842,4.847,5.038
8.226,2.408,4.436,5.125
8.099,2.856,4.085,5.127
8.266,2.685,4.862,5.128
9.546,2.197,5.599,5.13
8.739,2.234,5.111,5.136
8.029,1.839,3.98,5.226
7.913,2.026,3.775,5.227
8.331,2.327,4.009,5.229
8.32,2.389,4.463,5.231
8.771,2.261,5.02,5.232
7.8,3.18,5.76,5.351
7.833,3.093,5.653,5.352
7.433,3.233,5.133,5.354
7.978,3.264,5.184,5.355
7.5,3.52,4.64,5.372
7.036,2.644,6.095,5.445
6.266,3.294,5.858,5.446
6.349,3.291,5.537,5.448
6.96,3.28,6.1,5.449
7.149,3.191,6.337,5.451
6.617,3.603,5.821,5.456
5.156,4.878,4.956,5.523
5.948,4.874,5.581,5.525
6.556,5.078,6.156,5.527
7.056,5.378,5.956,5.528
6.399,5.92,5.723,5.625
5.698,6.34,5.345,5.627
5.335,6.427,5.322,5.629
5.461,6.452,5.168,5.631
5.811,6.662,5.23,5.633
4.745,7.694,5.324,5.725
4.884,7.72,5.318,5.727
4.655,8.106,5.076,5.729
4.443,8.071,5.014,5.748
4.341,7.849,5.004,5.749
3.633,8.164,3.884,5.827
3.505,8.139,3.733,5.829
3.442,8.034,3.804,5.832
3.711,7.985,4.113,5.833
3.724,8.394,4.165,5.835
3.378,8.621,3.628,5.925
3.226,8.61,3.758,5.926
3.52,8.363,4.079,5.928
3.0,8.5,4.1,5.933
2.958,8.753,2.927,6.03
3.035,8.878,3.582,6.031
2.795,8.698,3.782,6.033
2.653,8.251,3.609,6.035
2.684,8.195,3.845,6.036
2.627,8.209,3.391,6.125
2.993,8.131,3.409,6.127
3.042,8.247,3.473,6.129
2.956,8.285,3.155,6.144
2.876,8.225,2.855,6.146
3.015,8.238,2.882,6.225
2.985,8.262,3.018,6.228
2.975,8.458,2.982,6.229
2.958,8.753,2.927,6.231
3.095,8.798,2.582,6.232
3.293,8.731,2.709,6.325
3.16,8.62,2.7,6.326
3.185,8.662,2.918,6.328
3.335,8.478,2.982,6.33
3.369,8.356,2.864,6.331
3.404,8.235,2.745,6.425
3.644,8.415,2.545,6.427
3.891,8.464,2.736,6.428
4.024,8.575,2.745,6.432
4.2,8.9,2.8,6.434
4.163,8.805,3.329,6.526
4.139,8.911,3.464,6.529
4.139,8.911,3.464,6.539
3.96,8.682,3.389,6.541
3.921,8.471,3.325,6.542
4.024,8.694,3.465,6.627
3.96,8.682,3.389,6.629
3.742,8.334,3.104,6.631
3.818,8.248,3.185,6.633
3.794,8.353,3.32,6.635
4.035,8.18,3.278,6.724
4.123,8.086,3.218,6.726
4.276,8.006,3.235,6.732
4.364,7.913,3.176,6.734
4.528,7.825,3.051,6.735
4.681,7.745,3.068,6.825
4.77,7.559,3.155,6.831
4.755,7.243,2.956,6.833
5.098,6.784,3.007,6.834
5.442,6.834,3.104,6.836
4.984,7.288,2.529,6.925
5.042,7.191,2.807,6.935
4.979,6.651,2.739,6.937
5.438,6.066,2.547,6.939
5.645,6.316,3.167,6.94
5.449,5.914,0.997,7.029
5.574,5.157,0.449,7.03
5.984,5.062,0.601,7.032
6.787,5.633,0.507,7.034
8.471,7.486,0.943,7.035
10.123,10.031,2.408,7.125
10.8,12.2,4.6,7.127
11.838,15.585,5.446,7.128
13.7,18.0,5.2,7.13
11.792,13.423,-0.269,7.132
6.726,8.668,-6.536,7.226
6.755,2.881,-7.862,7.228
7.572,-0.44,-5.119,7.231
8.632,-2.515,-1.07,7.233
9.164,-2.83,1.26,7.239
8.23,-3.707,-0.859,7.325
7.53,-3.107,-1.959,7.331
8.119,-2.53,-3.537,7.332
9.215,-2.304,-3.73,7.334
10.189,-2.222,-3.178,7.336
9.584,-0.151,-4.057,7.425
8.843,-0.21,-4.369,7.427
9.075,-0.008,-4.155,7.428
8.863,-0.496,-4.073,7.437
9.133,-1.067,-3.967,7.44
9.816,-3.647,-4.335,7.526
9.273,-3.461,-4.306,7.528
7.651,-2.559,-4.596,7.535
6.794,-1.045,-4.124,7.537
6.953,0.522,-3.588,7.539
8.298,1.818,-2.908,7.624
8.422,2.598,-2.11,7.626
7.473,2.939,-1.706,7.628
7.633,3.106,-1.869,7.629
7.822,3.944,-0.744,7.725
7.03,4.393,-1.459,7.73
7.015,4.996,-2.03,7.732
8.015,5.496,-1.93,7.734
9.97,6.107,-1.141,7.735
9.669,6.177,-0.414,7.834
8.221,6.215,-1.624,7.835
8.281,5.795,-1.924,7.837
9.364,5.501,-1.195,7.839
8.902,5.21,-1.148,7.841
5.918,6.413,-1.753,7.925
5.918,5.953,-3.533,7.932
6.309,6.016,-4.296,7.934
6.318,6.653,-4.933,7.936
5.927,7.469,-4.829,7.938
5.247,8.33,-4.127,8.026
5.652,8.393,-3.924,8.027
5.611,8.55,-3.545,8.029
5.368,8.429,-3.416,8.031
4.954,8.248,-3.123,8.04
5.333,7.651,-2.796,8.134
5.0,7.488,-2.747,8.136
5.033,7.786,-2.755,8.138
4.867,8.437,-2.951,8.139
5.233,8.892,-3.231,8.141
5.5,9.259,-3.465,8.226
4.9,9.259,-3.465,8.227
4.167,8.731,-3.675,8.229
3.933,8.11,-4.061,8.236
4.067,7.955,-4.28,8.237
4.033,7.922,-4.414,8.325
4.033,7.916,-4.637,8.327
4.3,7.753,-4.588,8.329
4.267,7.725,-4.498,8.333
4.333,7.792,-4.231,8.335
4.333,7.933,-3.967,8.426
4.267,8.014,-3.745,8.428
4.167,7.925,-3.698,8.43
4.067,7.837,-3.651,8.44
4.033,7.804,-3.784,8.441
4.1,7.859,-3.965,8.525
4.067,7.961,-4.057,8.526
3.967,8.002,-4.192,8.528
3.9,7.941,-4.235,8.53
2.468,8.468,-4.411,8.537
2.495,8.335,-4.448,8.625
2.542,8.242,-4.353,8.627
2.542,8.242,-4.353,8.629
2.758,8.358,-4.347,8.63
2.758,8.358,-4.347,8.632
2.784,8.224,-4.385,8.725
2.784,8.224,-4.385,8.726
2.732,8.152,-4.429,8.728
2.732,8.152,-4.429,8.73
2.784,8.224,-4.385,8.731
2.837,8.297,-4.341,8.825
2.811,8.431,-4.303,8.827
2.726,8.326,-4.258,8.837
2.726,8.326,-4.258,8.847
2.726,8.326,-4.258,8.849
2.726,8.326,-4.258,8.925
2.726,8.326,-4.258,8.927
2.726,8.326,-4.258,8.928
2.858,8.338,-4.207,8.933
2.805,8.265,-4.252,8.935
2.837,8.297,-4.341,9.031
2.837,8.297,-4.341,9.033
2.837,8.297,-4.341,9.035
2.805,8.265,-4.252,9.037
2.837,8.297,-4.341,9.038
2.805,8.265,-4.252,9.124
2.805,8.265,-4.252,9.126
2.889,8.369,-4.297,9.128
2.837,8.297,-4.341,9.129
2.837,8.297,-4.341,9.136
2.837,8.297,-4.341,9.228
2.758,8.358,-4.347,9.239
2.705,8.285,-4.392,9.24
2.784,8.224,-4.385,9.242
2.705,8.285,-4.392,9.324
2.837,8.297,-4.341,9.334
2.837,8.297,-4.341,9.335
2.837,8.297,-4.341,9.337
2.837,8.297,-4.341,9.339
2.837,8.297,-4.341,9.425
2.837,8.297,-4.341,9.427
2.837,8.297,-4.341,9.429
2.837,8.297,-4.341,9.43
2.837,8.297,-4.341,9.432
2.816,8.256,-4.475,9.524
2.837,8.297,-4.341,9.526
2.963,8.143,-4.239,9.528
2.958,8.318,-4.067,9.529
3.011,8.391,-4.023,9.531
3.368,8.848,-4.071,9.624
4.342,10.082,-2.733,9.639
4.726,10.466,-2.238,9.641
3.621,9.041,-5.366,9.642
2.758,9.418,-6.767,9.644
0.904,8.998,-7.244,9.724
0.673,7.213,-8.033,9.726
0.658,6.271,-8.078,9.727
0.922,6.289,-8.322,9.729
0.582,6.409,-8.722,9.731
-0.581,3.707,-10.587,9.824
-0.73,3.784,-10.815,9.826
-0.731,4.129,-10.96,9.827
-0.583,4.396,-10.879,9.829
-0.464,5.148,-10.612,9.831
-1.339,4.361,-10.208,9.925
-1.024,4.176,-9.765,9.928
-1.327,3.573,-9.325,9.93
-0.9,2.7,-9.0,9.931
0.306,1.206,-9.059,9.933
-0.312,-0.082,-9.088,10.023
-0.104,-1.061,-9.696,10.025
0.876,-1.365,-9.776,10.027
1.322,-0.616,-8.922,10.028
1.51,-0.098,-8.21,10.03
1.559,0.112,-7.659,10.124
1.735,-0.753,-7.835,10.133
2.806,-0.459,-8.206,10.135
2.98,-0.304,-8.28,10.139
2.647,0.329,-8.147,10.141
0.782,0.351,-8.433,10.253
0.639,0.286,-8.725,10.255
0.609,-0.198,-8.911,10.257
1.697,-0.234,-9.263,10.258
1.837,0.097,-9.234,10.26
0.945,0.254,-8.799,10.325
1.357,0.335,-9.292,10.327
1.446,0.199,-9.545,10.328
1.38,-0.438,-9.542,10.33
1.387,-0.281,-9.307,10.339
1.9,-0.1,-9.4,10.429
1.909,-0.04,-9.185,10.432
1.725,0.117,-9.221,10.434
1.951,0.266,-9.458,10.438
2.123,0.285,-9.704,10.44
1.917,-0.196,-9.721,10.525
1.893,-0.113,-9.181,10.527
1.697,-0.234,-9.263,10.529
1.612,-0.164,-9.648,10.534
1.351,-0.233,-10.018,10.535
1.373,-0.25,-9.922,10.625
1.686,-0.125,-9.761,10.627
1.331,-0.071,-9.36,10.628
1.315,0.37,-9.484,10.63
1.172,0.305,-9.777,10.631
1.242,-0.08,-9.862,10.724
1.237,-0.503,-9.834,10.726
1.412,-0.364,-9.848,10.728
1.512,-0.264,-9.748,10.739
1.775,-0.261,-10.014,10.743
2.088,-2.041,-9.659,10.824
1.763,-2.114,-9.286,10.826
1.955,-2.075,-9.325,10.827
1.706,-2.329,-9.271,10.829
1.627,-2.037,-9.363,10.831
1.857,-2.084,-9.816,10.924
1.512,-2.059,-9.441,10.926
1.32,-1.998,-9.302,10.927
1.28,-1.902,-9.398,10.929
1.337,-1.886,-9.614,11.029
1.99,-1.751,-9.849,11.03
1.645,-2.025,-9.775,11.032
1.569,-1.943,-9.557,11.034
1.512,-2.059,-9.441,11.038
