vertical_Accel_x,vertical_Accel_y,vertical_Accel_z,accel_time_list
2.374,10.229,0.263,0.0
1.954,9.929,0.323,0.002
0.618,8.718,0.176,0.004
0.694,9.594,-1.059,0.005
1.231,9.831,-0.72,0.102
1.198,10.198,-0.186,0.104
0.539,10.139,-0.075,0.106
-0.269,9.731,-0.22,0.107
-0.163,9.937,-0.561,0.109
-0.125,9.975,-0.322,0.111
-0.084,9.916,-0.11,0.201
-0.033,10.067,-0.267,0.203
0.022,10.122,-0.451,0.213
-0.002,9.998,-0.386,0.215
0.194,9.894,-0.359,0.216
0.41,10.01,-0.369,0.301
0.345,9.945,-0.516,0.303
0.533,10.033,-0.433,0.304
0.349,9.849,-0.543,0.306
0.661,9.961,-0.525,0.325
0.476,9.776,-0.635,0.401
0.357,9.657,-0.598,0.403
0.445,9.845,-0.516,0.405
0.325,9.725,-0.478,0.406
0.298,9.698,-0.386,0.413
0.394,9.694,-0.359,0.501
0.514,9.814,-0.396,0.503
0.633,9.933,-0.433,0.504
0.441,9.941,-0.488,0.506
0.106,9.706,-0.441,0.508
0.29,9.89,-0.331,0.578
0.286,9.986,-0.304,0.58
0.314,10.014,-0.396,0.581
0.41,10.01,-0.369,0.583
0.378,10.078,-0.249,0.584
0.598,10.098,-0.286,0.7
0.222,9.922,-0.451,0.702
0.225,9.825,-0.478,0.709
0.229,9.729,-0.506,0.793
0.045,9.545,-0.616,0.794
-0.267,9.433,-0.633,0.796
-0.831,9.169,-0.88,0.797
-1.288,8.812,-1.882,0.803
-0.69,5.71,-1.869,0.804
-4.671,5.957,-6.986,0.9
5.676,8.959,-1.475,0.902
4.643,9.946,-2.049,0.903
1.462,6.81,-1.292,0.905
-0.053,7.447,-2.029,1.002
0.402,8.302,-1.314,1.004
0.053,7.753,-0.171,1.006
-0.668,7.398,1.843,1.013
-0.612,7.932,2.129,1.014
0.08,7.57,3.229,1.016
-1.189,5.378,6.222,1.101
-1.687,5.065,6.817,1.103
-1.94,5.463,7.201,1.104
-2.038,5.249,7.696,1.114
-2.598,3.487,7.695,1.116
1.595,-0.584,8.684,1.21
1.985,-0.476,10.216,1.212
0.926,1.121,10.079,1.214
0.296,-0.307,10.347,1.215
2.011,-5.232,11.232,1.217
7.102,-5.596,8.965,1.301
6.402,-2.696,9.265,1.303
5.2,-2.6,9.8,1.304
4.769,-2.761,10.02,1.306
4.849,-3.702,10.667,1.308
6.287,-1.302,10.86,1.376
11.254,-4.33,18.033,1.377
13.114,-5.883,13.158,1.379
7.733,-0.672,8.827,1.381
4.334,-0.256,7.046,1.382
1.743,-1.314,7.071,1.499
2.541,-2.218,7.606,1.504
1.92,-1.659,9.253,1.514
1.924,-1.551,10.384,1.516
4.374,-2.119,9.802,1.602
4.828,-3.05,8.735,1.604
5.321,-4.158,7.906,1.605
4.85,-3.392,7.759,1.607
4.585,-3.133,8.123,1.612
4.683,-2.964,8.486,1.614
4.568,-2.213,8.691,1.701
4.159,-1.752,8.725,1.702
3.977,-2.373,8.457,1.704
4.318,-3.205,7.65,1.709
4.907,-3.491,7.129,1.71
4.504,-3.992,7.831,1.801
4.988,-3.824,8.308,1.802
4.843,-3.114,8.771,1.804
4.673,-2.553,8.851,1.806
5.029,-1.566,8.397,1.811
4.714,-1.663,8.289,1.901
4.5,-2.24,8.32,1.91
4.662,-2.919,8.09,1.912
5.01,-3.155,8.032,1.914
4.952,-3.044,8.098,1.922
4.562,-2.819,8.29,2.001
4.429,-2.646,8.337,2.004
4.419,-2.35,8.285,2.005
4.419,-2.35,8.285,2.007
3.749,-3.002,8.667,2.016
3.963,-3.273,8.524,2.101
4.139,-3.422,8.441,2.102
3.973,-3.153,8.451,2.104
3.808,-2.884,8.461,2.106
3.794,-2.712,8.604,2.107
3.833,-2.835,8.545,2.201
3.924,-3.151,8.584,2.202
3.924,-3.151,8.584,2.204
3.788,-3.124,8.608,2.206
3.759,-2.882,8.594,2.211
3.72,-2.759,8.653,2.306
3.584,-2.733,8.678,2.308
3.72,-2.759,8.653,2.309
3.861,-3.078,8.559,2.311
3.837,-3.127,8.476,2.313
3.735,-2.931,8.51,2.4
3.633,-2.735,8.545,2.401
3.949,-3.102,8.667,2.403
4.096,-3.008,8.569,2.41
4.169,-2.961,8.52,2.526
3.735,-2.931,8.51,2.527
3.49,-3.12,8.573,2.529
3.5,-3.0,8.5,2.531
3.514,-3.071,8.657,2.532
3.578,-3.145,8.682,2.603
3.724,-3.051,8.584,2.604
3.798,-3.004,8.535,2.606
3.837,-3.127,8.476,2.608
3.798,-3.004,8.535,2.609
3.759,-2.882,8.594,2.619
3.686,-2.929,8.643,2.62
3.749,-3.002,8.667,2.699
3.861,-3.078,8.559,2.7
3.973,-3.053,8.751,2.702
4.061,-3.078,8.859,2.801
4.043,-2.814,8.471,2.803
3.59,-2.42,8.373,2.804
3.476,-3.049,8.416,2.806
3.665,-3.369,8.19,2.808
3.802,-3.296,8.465,2.9
3.704,-3.292,8.731,2.902
3.465,-3.169,8.49,2.904
3.29,-3.02,8.573,2.905
3.09,-2.92,8.573,2.907
3.251,-2.898,8.633,3.0
3.743,-3.314,8.971,3.002
3.841,-3.318,8.706,3.004
3.837,-3.127,8.476,3.005
3.671,-2.857,8.486,3.016
3.798,-2.904,8.835,3.1
4.061,-3.078,8.859,3.102
4.159,-3.082,8.594,3.104
3.784,-2.933,8.378,3.105
3.486,-2.929,8.343,3.11
3.861,-3.078,8.559,3.202
3.816,-3.367,8.622,3.212
4.216,-3.567,8.622,3.213
4.257,-3.086,8.329,3.215
4.029,-2.843,8.014,3.217
3.984,-3.033,8.378,3.3
3.763,-3.173,8.524,3.302
3.802,-3.396,8.165,3.304
4.261,-3.378,8.259,3.305
4.345,-3.11,8.437,3.307
4.184,-2.933,8.978,3.4
4.794,-3.212,8.604,3.402
4.62,-2.559,8.153,3.405
4.524,-2.051,7.884,3.421
4.476,-2.049,8.016,3.423
4.398,-1.704,8.435,3.5
3.92,-1.159,8.853,3.505
3.935,-1.231,9.01,3.507
3.89,-1.62,8.773,3.509
3.802,-1.696,8.365,3.51
3.884,-2.233,8.178,3.6
3.931,-2.839,8.28,3.602
4.076,-3.449,8.116,3.604
3.918,-3.763,7.988,3.605
4.73,-3.318,7.372,3.61
4.64,-3.463,7.656,3.7
4.443,-3.817,8.012,3.702
4.289,-3.771,8.197,3.704
3.926,-3.681,8.198,3.705
3.388,-3.186,8.279,3.707
3.281,-3.511,8.431,3.804
3.625,-3.896,8.38,3.809
3.215,-3.667,8.577,3.82
3.444,-4.301,9.03,3.822
3.07,-4.682,7.628,3.824
2.981,-3.711,7.531,3.9
3.133,-4.772,8.727,3.902
2.617,-4.636,8.914,3.903
2.279,-4.542,7.694,3.905
3.745,-5.795,7.256,3.907
5.854,-5.734,6.282,4.0
5.782,-5.504,6.46,4.001
5.937,-4.191,8.08,4.003
5.939,-3.197,8.255,4.004
5.216,-2.99,6.465,4.1
6.159,-3.798,7.27,4.102
6.16,-5.351,8.208,4.103
5.41,-4.874,7.739,4.105
4.398,-4.395,8.225,4.107
4.367,-4.063,8.249,4.2
4.467,-4.775,8.402,4.202
4.233,-5.267,7.833,4.215
4.3,-4.941,7.735,4.218
4.633,-4.655,7.28,4.22
4.533,-4.078,7.086,4.3
4.133,-4.831,7.375,4.302
4.033,-4.931,6.975,4.303
3.6,-5.712,7.353,4.305
3.267,-5.739,7.443,4.307
2.667,-4.933,7.467,4.401
3.133,-5.184,7.563,4.403
2.7,-5.3,7.7,4.411
2.367,-4.933,7.467,4.413
2.767,-5.233,7.967,4.415
2.546,-6.149,7.065,4.5
2.043,-6.192,6.634,4.502
1.995,-6.571,6.449,4.504
1.754,-7.051,6.035,4.505
2.265,-7.195,6.846,4.507
2.818,-6.747,6.367,4.6
2.482,-6.513,5.953,4.61
2.736,-6.955,5.955,4.616
3.3,-7.42,6.44,4.618
2.482,-7.393,6.613,4.62
2.736,-6.795,6.335,4.7
2.136,-6.755,6.555,4.702
2.5,-6.34,6.88,4.704
3.036,-7.275,7.195,4.709
2.645,-6.098,6.778,4.711
2.645,-6.098,6.778,4.799
2.064,-6.365,6.785,4.801
2.318,-6.467,6.907,4.803
3.455,-7.282,7.382,4.804
2.491,-6.436,6.736,4.806
1.909,-5.844,6.724,4.9
2.564,-6.665,6.885,4.902
3.0,-7.16,7.12,4.903
2.082,-6.853,6.833,4.905
2.536,-6.455,6.955,4.907
3.073,-6.084,6.693,5.0
3.499,-5.726,6.519,5.002
4.192,-7.011,6.552,5.007
4.252,-6.311,6.472,5.009
3.574,-6.458,6.174,5.01
2.878,-5.953,6.198,5.1
3.825,-6.268,6.145,5.102
4.573,-7.284,6.693,5.103
4.011,-6.437,6.311,5.105
1.882,-6.133,6.293,5.111
3.423,-6.121,6.383,5.202
3.884,-5.995,7.084,5.204
4.313,-6.384,6.873,5.206
3.601,-5.574,6.681,5.216
3.564,-4.995,6.344,5.218
3.343,-6.921,6.323,5.3
3.341,-6.974,7.361,5.301
3.459,-6.726,7.239,5.303
2.94,-6.8,7.08,5.305
2.949,-6.363,6.909,5.32
2.182,-6.433,6.893,5.4
2.327,-6.711,6.931,5.403
2.291,-6.436,7.236,5.404
2.118,-6.467,7.407,5.407
2.009,-6.304,7.444,5.412
2.264,-6.405,7.565,5.5
2.727,-6.251,7.711,5.507
2.455,-5.322,7.662,5.509
5.764,-2.225,5.305,5.51
7.191,-4.056,4.076,5.512
3.767,-2.039,8.643,5.606
3.933,-1.761,8.457,5.607
4.1,-1.888,8.147,5.609
2.1,-3.271,8.318,5.611
1.6,-5.188,8.547,5.612
2.033,-6.673,8.81,5.699
1.933,-7.443,8.427,5.701
2.567,-8.369,7.825,5.704
3.067,-8.063,7.549,5.713
0.06,-9.58,4.9,5.8
0.736,-8.448,4.36,5.805
2.2,-8.1,4.2,5.806
4.904,-11.072,4.54,5.808
4.368,-11.724,8.28,5.81
4.332,-12.376,14.72,5.901
4.48,0.36,16.9,5.903
4.54,-2.22,6.9,5.906
6.756,-5.808,2.56,5.911
3.895,1.322,5.108,5.913
3.842,1.868,6.493,6.0
6.133,-0.572,8.827,6.001
5.678,0.243,9.976,6.003
5.844,-0.301,9.33,6.005
6.038,-1.494,7.519,6.006
4.698,-1.404,7.335,6.1
4.104,-0.792,7.031,6.101
2.816,-0.067,7.222,6.103
2.857,0.814,8.129,6.116
3.871,2.343,9.686,6.119
2.408,4.688,9.724,6.2
2.408,4.688,9.724,6.212
3.194,4.159,9.782,6.213
3.904,2.194,10.012,6.215
2.973,0.49,10.02,6.219
2.324,-0.037,9.873,6.301
1.843,-0.314,9.729,6.303
1.184,-0.076,10.151,6.304
1.155,1.067,10.265,6.311
1.084,2.124,9.651,6.312
1.602,2.547,8.706,6.4
2.261,2.308,8.284,6.402
3.239,1.492,8.116,6.407
4.649,1.227,8.147,6.409
5.063,-0.145,9.19,6.411
3.861,-1.192,10.084,6.499
2.929,-0.443,9.886,6.507
2.847,0.78,9.541,6.518
2.288,1.718,9.463,6.519
2.022,2.016,9.567,6.521
2.106,2.041,9.518,6.6
2.155,1.767,9.465,6.601
2.11,1.035,9.431,6.603
2.041,0.439,9.422,6.605
2.006,0.341,9.518,6.606
1.996,0.306,9.688,6.699
2.129,0.457,9.786,6.701
2.439,0.892,9.716,6.702
2.7,1.2,9.5,6.704
2.735,1.298,9.404,6.706
2.7,1.0,9.4,6.799
2.498,0.653,9.494,6.801
2.404,0.194,9.512,6.808
2.394,-0.041,9.582,6.809
2.394,-0.041,9.582,6.811
2.32,0.169,9.561,6.907
2.355,0.467,9.565,6.917
2.39,0.765,9.569,6.919
2.316,0.976,9.549,6.921
2.257,0.814,9.571,6.922
2.296,0.506,9.688,6.999
2.478,0.384,9.733,7.001
2.439,0.692,9.616,7.002
2.292,0.712,9.376,7.004
2.351,0.873,9.353,7.006
2.484,1.224,9.551,7.124
2.498,1.053,9.694,7.126
2.365,0.902,9.596,7.128
2.316,0.776,9.449,7.129
2.306,0.541,9.518,7.131
2.355,0.467,9.565,7.201
2.355,0.467,9.565,7.203
2.439,0.492,9.516,7.21
2.463,0.555,9.59,7.216
2.488,0.618,9.663,7.218
2.498,0.653,9.494,7.228
2.414,0.629,9.543,7.3
2.414,0.629,9.543,7.302
2.439,0.492,9.516,7.304
2.439,0.492,9.516,7.305
2.488,0.418,9.563,7.399
2.522,0.516,9.467,7.4
2.463,0.555,9.59,7.402
2.414,0.629,9.543,7.404
2.414,0.629,9.543,7.501
2.39,0.565,9.469,7.505
2.522,0.516,9.467,7.507
2.62,0.369,9.561,7.509
2.827,0.11,9.58,7.511
2.865,-0.398,9.596,7.599
2.935,0.198,9.604,7.601
2.39,0.765,9.569,7.603
1.953,1.22,9.459,7.604
1.684,1.924,9.351,7.606
1.659,2.261,9.478,7.699
1.865,2.002,9.496,7.701
2.288,1.718,9.463,7.706
2.484,1.224,9.551,7.708
2.459,1.161,9.478,7.709
2.449,0.927,9.547,7.799
2.424,1.063,9.573,7.801
2.376,1.137,9.527,7.803
2.218,1.322,9.555,7.818
2.086,1.371,9.557,7.82
2.135,1.298,9.604,7.899
2.11,1.235,9.531,7.901
2.159,1.161,9.578,7.903
2.218,1.122,9.455,7.91
2.41,1.235,9.431,7.913
2.386,1.371,9.457,8.001
2.459,1.361,9.578,8.004
2.533,1.151,9.598,8.006
2.459,1.161,9.478,8.007
2.351,1.073,9.453,8.017
2.316,0.976,9.549,8.099
2.292,1.112,9.576,8.1
2.316,0.976,9.549,8.102
2.365,0.902,9.596,8.103
2.292,1.112,9.576,8.105
2.292,1.112,9.576,8.2
2.243,1.186,9.529,8.201
2.218,1.322,9.555,8.203
2.243,1.186,9.529,8.205
2.243,1.186,9.529,8.21
2.376,1.137,9.527,8.299
2.449,0.927,9.547,8.301
2.4,1.0,9.5,8.303
2.4,1.0,9.5,8.304
2.424,1.063,9.573,8.306
2.376,1.137,9.527,8.424
2.424,1.063,9.573,8.426
2.4,1.0,9.5,8.427
2.376,1.137,9.527,8.438
2.292,1.112,9.576,8.44
2.292,1.112,9.576,8.501
2.327,1.21,9.48,8.503
2.351,1.273,9.553,8.505
2.267,1.249,9.602,8.507
2.243,1.186,9.529,8.518
2.267,1.049,9.502,8.52
2.267,1.049,9.502,8.602
2.4,1.0,9.5,8.604
2.4,1.0,9.5,8.606
2.508,1.088,9.524,8.607
2.508,1.088,9.524,8.7
2.533,0.951,9.498,8.702
2.449,0.927,9.547,8.705
2.449,0.927,9.547,8.712
2.316,0.976,9.549,8.714
2.351,1.073,9.453,8.808
2.351,1.073,9.453,8.809
2.376,1.137,9.527,8.825
2.4,1.0,9.5,8.827
2.484,1.024,9.451,8.828
2.484,1.024,9.451,8.899
2.449,0.927,9.547,8.901
2.533,0.951,9.498,8.902
2.484,1.024,9.451,8.904
2.484,1.024,9.451,8.906
2.533,0.951,9.498,8.998
2.533,0.951,9.498,9.009
2.508,1.088,9.524,9.01
2.484,1.024,9.451,9.012
2.4,1.0,9.5,9.099
2.4,1.0,9.5,9.101
2.4,1.0,9.5,9.102
2.424,1.063,9.573,9.104
2.508,1.088,9.524,9.106
2.508,1.088,9.524,9.199
2.484,1.024,9.451,9.201
2.484,1.024,9.451,9.217
2.508,1.088,9.524,9.219
2.484,1.024,9.451,9.226
2.484,1.024,9.451,9.306
2.508,0.888,9.424,9.307
2.533,0.951,9.498,9.309
2.533,0.951,9.498,9.311
2.533,0.951,9.498,9.312
2.484,1.024,9.451,9.399
2.435,1.098,9.404,9.401
2.484,1.024,9.451,9.402
2.533,0.951,9.498,9.404
2.533,0.951,9.498,9.405
2.508,0.888,9.424,9.501
2.484,1.024,9.451,9.503
2.41,1.235,9.431,9.504
2.253,1.42,9.459,9.506
2.302,1.347,9.506,9.509
2.459,1.161,9.478,9.599
2.484,1.024,9.451,9.609
2.508,0.888,9.424,9.611
2.484,1.024,9.451,9.624
2.459,1.161,9.478,9.626
2.41,1.235,9.431,9.699
2.376,1.137,9.527,9.7
2.4,1.0,9.5,9.702
2.484,1.024,9.451,9.71
2.4,1.0,9.5,9.711
2.484,1.024,9.451,9.799
2.508,1.088,9.524,9.801
2.508,1.088,9.524,9.803
2.508,1.088,9.524,9.809
2.459,1.161,9.478,9.811
2.4,1.0,9.5,9.9
2.424,0.863,9.473,9.903
2.484,1.024,9.451,9.905
2.4,1.0,9.5,9.907
2.4,1.0,9.5,9.909
2.4,1.0,9.5,9.999
2.508,0.888,9.424,10.001
2.508,0.888,9.424,10.002
2.557,0.814,9.471,10.004
2.533,0.951,9.498,10.009
2.484,1.024,9.451,10.104
2.351,1.073,9.453,10.106
2.4,1.0,9.5,10.108
2.449,0.927,9.547,10.109
2.449,0.927,9.547,10.111
2.4,1.0,9.5,10.199
2.449,0.927,9.547,10.2
2.449,0.927,9.547,10.202
2.4,1.0,9.5,10.204
2.449,0.927,9.547,10.206
2.424,0.863,9.473,10.299
2.508,0.888,9.424,10.3
2.533,0.951,9.498,10.302
2.533,0.951,9.498,10.304
2.4,1.0,9.5,10.318
2.4,1.0,9.5,10.399
2.533,0.951,9.498,10.4
2.449,0.927,9.547,10.402
2.424,0.863,9.473,10.404
2.4,1.0,9.5,10.405
2.473,0.79,9.52,10.502
2.522,0.716,9.567,10.504
2.424,0.863,9.473,10.505
2.582,0.878,9.545,10.507
2.449,0.927,9.547,10.508
2.449,0.927,9.547,10.598
2.508,0.888,9.424,10.6
2.547,0.78,9.641,10.602
2.39,0.965,9.669,10.603
2.257,0.814,9.571,10.699
2.208,0.888,9.524,10.701
2.027,1.01,9.48,10.702
1.918,0.922,9.455,10.704
2.002,0.947,9.406,10.717
2.11,1.035,9.431,10.799
2.292,0.912,9.476,10.801
2.424,0.863,9.473,10.803
2.365,0.902,9.596,10.805
2.233,0.951,9.598,10.806
2.184,1.024,9.551,10.899
2.1,1.0,9.6,10.9
2.076,1.137,9.627,10.902
2.076,1.137,9.627,10.904
2.051,1.273,9.653,10.905
1.943,1.186,9.629,10.998
1.918,1.122,9.555,11.0
1.967,1.049,9.602,11.007
2.076,1.137,9.627,11.009
2.233,1.151,9.698,11.012
2.292,1.112,9.576,11.098
2.351,1.073,9.453,11.1
2.4,1.0,9.5,11.101
2.208,0.888,9.524,11.111
2.208,0.688,9.424,11.113
2.208,0.688,9.424,11.198
2.341,0.639,9.422,11.2
2.449,0.727,9.447,11.201
2.473,0.79,9.52,11.203
2.473,0.99,9.62,11.212
2.341,1.039,9.622,11.298
2.159,1.161,9.578,11.3
1.943,1.186,9.629,11.302
1.859,0.961,9.578,11.303
1.933,0.751,9.598,11.305
1.933,0.751,9.598,11.397
2.124,0.863,9.573,11.399
2.208,0.888,9.524,11.401
2.316,0.976,9.549,11.404
2.365,0.902,9.596,11.405
2.39,0.765,9.569,11.499
2.39,0.565,9.469,11.501
2.439,0.492,9.516,11.51
2.547,0.38,9.441,11.512
2.547,0.38,9.441,11.513
2.522,0.516,9.467,11.598
2.414,0.629,9.543,11.603
2.282,0.678,9.545,11.605
2.233,0.751,9.498,11.607
2.149,0.727,9.547,11.608
2.149,0.727,9.547,11.698
2.173,0.79,9.62,11.7
2.173,0.79,9.62,11.707
2.257,0.814,9.571,11.71
2.257,0.814,9.571,11.712
2.257,0.814,9.571,11.798
2.365,0.702,9.496,11.8
2.306,0.541,9.518,11.802
2.306,0.541,9.518,11.803
2.39,0.565,9.469,11.805
2.365,0.702,9.496,11.898
2.365,0.702,9.496,11.911
2.39,0.765,9.569,11.92
2.365,0.702,9.496,11.922
2.341,0.639,9.422,11.924
2.341,0.639,9.422,11.998
2.404,0.594,9.712,12.0
2.306,0.741,9.618,12.002
2.282,0.678,9.545,12.003
2.233,0.751,9.498,12.005
2.282,0.678,9.545,12.099
2.257,0.814,9.571,12.101
-4.408,3.012,13.576,12.103
2.739,1.092,9.716,12.104
5.767,2.249,7.302,12.106
4.102,0.947,8.706,12.198
1.865,-1.298,10.296,12.199
2.024,-0.437,9.773,12.201
3.722,0.316,8.967,12.203
2.871,0.243,9.314,12.204
1.588,0.418,9.863,12.297
2.861,0.408,9.584,12.299
2.076,0.937,9.527,12.3
2.09,0.765,9.669,12.302
2.341,0.839,9.522,12.398
2.257,0.814,9.571,12.4
2.222,0.716,9.667,12.405
2.282,0.678,9.545,12.407
2.341,0.639,9.422,12.408
2.463,0.555,9.59,12.502
2.439,0.692,9.616,12.504
2.39,0.765,9.569,12.506
2.365,0.702,9.496,12.507
2.306,0.541,9.518,12.509
2.306,0.541,9.518,12.598
2.414,0.629,9.543,12.6
2.365,0.702,9.496,12.602
2.365,0.702,9.496,12.604
2.414,0.629,9.543,12.605
2.39,0.565,9.469,12.699
2.39,0.565,9.469,12.7
2.39,0.565,9.469,12.702
2.414,0.629,9.543,12.704
2.355,0.667,9.665,12.705
2.439,0.692,9.616,12.798
2.414,0.629,9.543,12.8
2.341,0.639,9.422,12.801
2.316,0.776,9.449,12.806
2.355,0.667,9.665,12.808
2.257,0.614,9.471,12.898
2.414,0.429,9.443,12.9
2.439,0.492,9.516,12.901
2.488,0.418,9.563,12.903
2.547,0.38,9.441,12.909
2.39,0.565,9.469,12.998
2.306,0.541,9.518,13.0
2.306,0.541,9.518,13.001
2.355,0.467,9.565,13.003
2.463,0.555,9.59,13.021
2.463,0.555,9.59,13.097
2.522,0.716,9.567,13.099
2.498,0.653,9.494,13.1
2.414,0.629,9.543,13.102
2.439,0.492,9.516,13.104
2.439,0.492,9.516,13.198
2.439,0.492,9.516,13.2
2.439,0.492,9.516,13.201
2.463,0.555,9.59,13.203
2.463,0.555,9.59,13.204
2.547,0.58,9.541,13.298
2.547,0.58,9.541,13.3
2.473,0.59,9.42,13.301
2.522,0.516,9.467,13.309
2.522,0.516,9.467,13.31
2.439,0.492,9.516,13.398
2.39,0.565,9.469,13.4
2.439,0.492,9.516,13.405
2.439,0.492,9.516,13.417
2.439,0.492,9.516,13.42
2.439,0.492,9.516,13.498
2.39,0.565,9.469,13.499
2.547,0.58,9.541,13.501
2.522,0.516,9.467,13.506
2.62,0.569,9.661,13.508
2.473,0.59,9.42,13.6
2.522,0.316,9.367,13.602
2.645,0.233,9.535,13.604
2.522,0.516,9.467,13.605
2.522,0.716,9.567,13.607
2.62,0.369,9.561,13.698
2.596,0.506,9.588,13.705
2.473,0.79,9.52,13.706
2.655,0.467,9.465,13.708
2.631,0.604,9.492,13.71
2.522,0.516,9.467,13.798
2.439,0.492,9.516,13.799
2.39,0.565,9.469,13.811
2.439,0.492,9.516,13.814
2.439,0.492,9.516,13.816
2.473,0.59,9.42,13.897
2.571,0.643,9.614,13.899
2.498,0.453,9.394,13.9
2.557,0.614,9.371,13.902
2.586,0.471,9.757,13.998
2.365,0.502,9.396,13.999
2.582,0.678,9.445,14.001
2.512,0.482,9.637,14.003
2.522,0.516,9.467,14.008
2.631,0.604,9.492,14.098
2.547,0.38,9.441,14.099
2.704,0.394,9.512,14.101
2.655,0.467,9.465,14.103
2.571,0.443,9.514,14.104
2.571,0.443,9.514,14.198
2.522,0.516,9.467,14.199
2.522,0.516,9.467,14.215
2.414,0.429,9.443,14.217
2.571,0.443,9.514,14.219
2.571,0.443,9.514,14.298
2.655,0.467,9.465,14.299
2.729,0.457,9.586,14.301
2.704,0.394,9.512,14.31
2.68,0.331,9.439,14.313
2.596,0.306,9.488,14.398
2.547,0.38,9.441,14.399
2.522,0.516,9.467,14.401
2.522,0.716,9.567,14.41
2.533,0.951,9.498,14.411
2.533,0.951,9.498,14.522
2.4,1.0,9.5,14.528
2.4,1.0,9.5,14.53
2.473,0.79,9.52,14.531
2.498,0.653,9.494,14.533
2.449,0.727,9.447,14.598
2.498,0.653,9.494,14.609
2.522,0.716,9.567,14.611
2.473,0.79,9.52,14.613
2.582,0.678,9.445,14.621
2.522,0.716,9.567,14.624
2.571,0.643,9.614,14.7
2.522,0.516,9.467,14.704
2.631,0.404,9.392,14.706
2.473,0.59,9.42,14.709
2.596,0.506,9.588,14.801
2.68,0.531,9.539,14.803
2.655,0.467,9.465,14.805
2.606,0.541,9.418,14.806
2.606,0.541,9.418,14.808
2.655,0.467,9.465,14.897
2.655,0.467,9.465,14.899
2.631,0.604,9.492,14.901
2.631,0.604,9.492,14.902
2.631,0.604,9.492,14.909
2.606,0.541,9.418,14.998
2.68,0.531,9.539,15.002
2.68,0.531,9.539,15.006
2.655,0.467,9.465,15.011
2.655,0.467,9.465,15.013
2.522,0.516,9.467,15.098
2.547,0.58,9.541,15.099
2.606,0.541,9.418,15.101
2.606,0.541,9.418,15.103
2.655,0.467,9.465,15.104
2.655,0.467,9.465,15.202
2.606,0.541,9.418,15.203
2.655,0.467,9.465,15.205
2.655,0.467,9.465,15.211
2.655,0.467,9.465,15.212
2.606,0.541,9.418,15.297
2.606,0.541,9.418,15.299
2.655,0.467,9.465,15.307
2.655,0.467,9.465,15.309
2.655,0.467,9.465,15.32
2.655,0.467,9.465,15.397
2.655,0.467,9.465,15.399
2.655,0.467,9.465,15.401
2.655,0.467,9.465,15.402
2.606,0.541,9.418,15.404
2.655,0.467,9.465,15.497
2.655,0.467,9.465,15.499
2.571,0.443,9.514,15.501
2.655,0.467,9.465,15.502
2.655,0.467,9.465,15.508
2.655,0.467,9.465,15.597
2.655,0.467,9.465,15.599
2.655,0.467,9.465,15.6
2.655,0.467,9.465,15.602
2.655,0.467,9.465,15.697
2.68,0.531,9.539,15.698
2.655,0.467,9.465,15.7
2.655,0.467,9.465,15.702
2.655,0.467,9.465,15.714
2.606,0.541,9.418,15.797
2.655,0.467,9.465,15.799
2.655,0.467,9.465,15.8
2.606,0.541,9.418,15.805
2.655,0.467,9.465,15.807
2.655,0.467,9.465,15.897
2.655,0.467,9.465,15.899
2.655,0.467,9.465,15.901
2.655,0.467,9.465,15.903
2.606,0.541,9.418,15.904
2.655,0.467,9.465,15.997
2.655,0.467,9.465,15.998
2.655,0.467,9.465,16.0
2.655,0.467,9.465,16.002
2.655,0.467,9.465,16.003
2.655,0.467,9.465,16.097
2.655,0.467,9.465,16.099
2.655,0.467,9.465,16.104
2.606,0.541,9.418,16.118
2.655,0.467,9.465,16.121
2.571,0.443,9.514,16.197
2.522,0.516,9.467,16.199
2.571,0.443,9.514,16.2
2.571,0.443,9.514,16.202
2.571,0.443,9.514,16.205
2.547,0.58,9.541,16.297
2.631,0.604,9.492,16.299
2.522,0.516,9.467,16.3
2.571,0.443,9.514,16.305
2.547,0.38,9.441,16.307
2.571,0.443,9.514,16.396
2.655,0.467,9.465,16.398
2.522,0.516,9.467,16.4
2.655,0.467,9.465,16.401
2.655,0.467,9.465,16.407
2.571,0.443,9.514,16.497
2.522,0.516,9.467,16.499
2.522,0.516,9.467,16.51
2.522,0.516,9.467,16.513
2.522,0.516,9.467,16.515
2.571,0.443,9.514,16.603
2.571,0.443,9.514,16.605
2.522,0.516,9.467,16.607
2.571,0.443,9.514,16.608
2.571,0.443,9.514,16.61
2.547,0.38,9.441,16.722
2.704,0.194,9.412,16.728
3.092,-0.588,9.276,16.73
3.99,-1.835,9.369,16.732
4.039,-1.708,9.516,16.733
3.239,-0.608,9.516,16.798
2.243,1.186,9.529,16.8
0.482,2.978,8.845,16.802
-0.273,3.61,8.28,16.803
-0.388,3.282,8.737,16.805
-1.278,4.316,9.367,16.807
-1.453,7.07,8.011,16.929
-0.785,6.472,7.717,16.931
-7.162,10.457,4.472,16.932
6.281,4.521,5.664,16.934
-1.518,5.8,8.371,16.997
3.071,5.5,7.418,16.999
-1.516,7.667,8.296,17.0
-1.343,9.033,6.839,17.005
1.086,7.933,6.322,17.007
1.676,7.4,5.994,17.097
1.865,7.3,5.641,17.099
0.388,8.1,5.647,17.1
1.391,8.591,5.727,17.102
-0.167,8.267,5.633,17.103
-1.574,7.871,6.166,17.196
-1.734,6.577,7.014,17.198
-2.212,7.821,6.17,17.2
0.937,7.193,6.043,17.201
-0.207,8.004,5.932,17.297
-0.448,8.285,5.879,17.309
-1.017,8.138,5.807,17.314
-1.07,7.997,5.676,17.316
-1.09,7.866,5.825,17.318
-0.402,7.687,5.895,17.397
-0.639,6.794,6.952,17.399
-0.455,8.345,5.664,17.401
0.051,7.728,6.126,17.402
-0.277,7.301,6.108,17.404
-0.21,7.634,5.875,17.497
-0.9,8.8,5.2,17.499
0.02,7.531,6.351,17.5
-0.392,7.753,5.82,17.502
-1.797,8.47,5.458,17.503
0.712,6.595,7.455,17.602
0.495,6.684,7.384,17.604
0.744,5.853,7.973,17.605
0.039,6.537,8.457,17.607
-0.052,7.305,6.165,17.609
1.484,7.051,6.076,17.712
0.249,7.747,5.773,17.714
0.622,7.467,6.384,17.716
0.969,8.508,6.304,17.721
0.686,7.757,6.429,17.723
0.343,7.329,6.114,17.798
0.186,7.257,6.129,17.807
-0.114,7.457,5.929,17.809
1.21,8.831,5.665,17.811
0.363,9.49,5.945,17.812
0.229,7.786,6.443,17.897
0.196,6.588,7.094,17.903
-0.596,7.053,7.093,17.905
1.205,5.216,8.016,17.906
5.486,4.179,6.299,17.908
0.752,9.195,6.235,17.976
-0.296,5.353,8.693,17.978
1.325,6.216,7.356,17.979
1.019,6.337,7.317,17.981
0.784,5.553,7.753,17.992
0.987,5.942,7.622,18.095
1.095,6.284,7.584,18.097
0.993,6.158,7.738,18.098
1.082,6.126,7.706,18.1
1.032,5.995,7.695,18.198
1.019,5.837,7.817,18.2
0.929,5.868,7.848,18.201
0.917,5.711,7.971,18.203
0.967,5.842,7.982,18.205
0.98,6.0,7.86,18.21
1.032,5.995,7.695,18.278
0.993,6.158,7.738,18.28
0.942,6.026,7.726,18.281
0.936,5.947,7.787,18.283
0.936,5.947,7.787,18.285
