vertical_Accel_x,vertical_Accel_y,vertical_Accel_z,accel_time_list
0.338,-1.4,9.959,0.0
0.505,-0.4,9.849,0.002
0.144,-0.4,9.847,0.003
0.506,-0.8,9.488,0.006
0.172,-0.8,9.708,0.008
0.311,-0.9,9.737,0.1
0.394,-0.7,9.682,0.102
0.228,-0.7,9.792,0.107
0.228,-0.6,9.792,0.108
-0.023,-0.1,9.957,0.11
0.366,-0.6,9.82,0.199
0.394,-0.7,9.682,0.201
0.256,-0.8,9.653,0.203
0.228,-0.8,9.792,0.205
0.228,-0.7,9.792,0.3
0.394,-0.7,9.682,0.302
0.394,-0.8,9.682,0.303
0.394,-0.8,9.682,0.305
0.172,-0.8,9.708,0.307
0.172,-0.6,9.708,0.4
0.228,-0.6,9.792,0.402
0.311,-0.8,9.737,0.403
0.45,-0.8,9.765,0.405
0.311,-0.8,9.737,0.406
0.311,-0.8,9.737,0.522
0.311,-0.7,9.737,0.524
0.311,-0.8,9.737,0.525
0.311,-0.8,9.737,0.527
0.311,-0.7,9.737,0.529
0.311,-0.7,9.737,0.6
0.311,-0.7,9.737,0.601
0.311,-0.8,9.737,0.603
0.311,-0.8,9.737,0.605
0.311,-0.8,9.737,0.606
0.311,-0.7,9.737,0.7
0.311,-0.8,9.737,0.702
0.311,-0.8,9.737,0.703
0.311,-0.7,9.737,0.705
0.311,-0.8,9.737,0.715
0.311,-0.7,9.737,0.8
0.311,-0.8,9.737,0.801
0.311,-0.7,9.737,0.803
0.311,-0.7,9.737,0.805
0.311,-0.7,9.737,0.81
0.311,-0.8,9.737,0.9
0.311,-0.7,9.737,0.902
0.311,-0.8,9.737,0.903
0.311,-0.7,9.737,0.905
0.311,-0.7,9.737,0.912
0.311,-0.7,9.737,1.0
0.228,-0.7,9.792,1.007
0.366,-0.7,9.82,1.008
0.311,-0.7,9.737,1.01
0.311,-0.8,9.737,1.012
0.311,-0.8,9.737,1.099
0.366,-0.8,9.82,1.105
0.366,-0.8,9.82,1.107
0.311,-0.9,9.737,1.117
0.283,-1.1,9.875,1.118
0.491,-1.671,9.713,1.2
0.355,-1.695,9.684,1.201
0.373,-1.493,9.778,1.203
0.445,-1.585,9.856,1.205
0.118,-1.958,9.975,1.21
-0.118,-1.882,9.645,1.3
0.327,-0.787,9.762,1.302
0.691,-1.851,9.953,1.303
0.073,-2.153,9.658,1.305
0.3,-2.3,9.4,1.306
0.8,-1.5,9.5,1.4
0.909,-1.809,9.927,1.406
0.927,-2.507,9.722,1.408
1.018,-2.978,9.335,1.409
0.955,-2.495,9.584,1.411
0.782,-2.022,9.665,1.512
0.218,-2.338,9.815,1.515
0.227,-2.507,9.222,1.524
0.345,-2.065,8.996,1.531
0.582,-1.822,9.065,1.533
1.082,-1.622,8.965,1.6
1.445,-1.165,9.296,1.601
1.764,-1.804,9.011,1.603
1.955,-2.975,8.724,1.605
2.391,-4.091,8.273,1.606
3.94,-4.502,8.053,1.7
3.472,-5.162,8.243,1.701
2.602,-5.311,8.266,1.706
2.315,-4.774,8.262,1.708
2.302,-4.711,7.766,1.71
2.287,-5.336,7.504,1.8
2.353,-6.066,7.449,1.801
2.209,-5.543,7.964,1.803
2.319,-5.296,8.094,1.805
3.591,-5.536,7.636,1.806
3.773,-5.009,8.009,1.919
3.918,-4.527,7.927,1.929
4.145,-4.918,7.618,1.93
3.755,-5.182,7.082,1.932
4.209,-5.164,7.264,2.0
4.018,-5.227,7.527,2.001
3.309,-5.064,6.864,2.003
4.027,-6.391,7.291,2.008
4.218,-7.627,6.827,2.01
4.182,-7.473,6.573,2.1
3.909,-7.264,7.564,2.101
3.282,-6.373,8.273,2.103
2.627,-5.091,7.691,2.109
4.064,-6.345,7.745,2.111
3.773,-6.809,7.309,2.2
4.7,-6.5,7.2,2.206
4.447,-6.568,6.651,2.207
4.021,-6.702,6.226,2.209
4.311,-7.028,5.896,2.211
4.225,-7.211,5.758,2.307
3.813,-7.183,5.762,2.317
3.442,-7.204,5.153,2.318
3.545,-7.413,4.785,2.321
3.611,-7.528,4.896,2.323
4.667,-6.767,4.267,2.399
4.3,-7.5,4.7,2.401
4.467,-7.867,3.967,2.403
4.3,-6.8,3.6,2.408
4.213,-9.153,1.974,2.41
5.79,-6.513,1.966,2.502
4.69,-6.013,3.866,2.504
4.02,-5.985,3.855,2.507
4.059,-7.354,2.464,2.51
3.974,-6.83,2.609,2.512
3.506,-8.014,0.769,2.599
2.073,-8.383,0.817,2.606
3.124,-8.76,-0.102,2.608
2.025,-9.012,0.16,2.61
2.265,-8.713,0.464,2.611
3.028,-9.285,-0.283,2.698
2.609,-9.672,-0.826,2.704
3.106,-9.504,-0.519,2.705
3.077,-9.951,-0.03,2.707
1.921,-9.881,0.536,2.708
2.104,-10.036,0.487,2.799
1.938,-10.426,0.285,2.801
1.455,-10.17,0.734,2.802
2.157,-10.338,0.828,2.807
2.766,-10.119,1.933,2.809
2.646,-10.031,1.673,2.899
2.242,-10.248,1.671,2.9
2.879,-10.141,1.489,2.903
3.101,-9.771,1.55,2.907
3.184,-9.466,1.692,2.914
3.426,-9.314,1.363,2.999
3.254,-9.269,1.227,3.001
2.844,-9.289,1.372,3.002
2.918,-9.247,1.659,3.004
3.048,-9.073,1.774,3.021
3.277,-8.899,1.688,3.099
3.15,-8.985,1.525,3.1
3.199,-9.029,1.45,3.102
3.248,-9.073,1.374,3.104
3.128,-9.355,1.064,3.105
2.575,-9.157,1.387,3.199
2.387,-9.179,1.544,3.201
2.905,-9.354,1.052,3.202
2.824,-9.572,0.862,3.208
2.511,-9.68,0.855,3.21
2.488,-9.55,1.294,3.299
2.709,-9.638,1.354,3.3
2.424,-9.572,1.662,3.302
2.291,-9.462,1.646,3.304
2.334,-9.681,1.667,3.305
2.696,-9.617,1.598,3.399
2.693,-9.704,1.647,3.4
2.423,-9.201,1.712,3.402
2.841,-9.377,1.42,3.412
2.469,-9.332,1.684,3.413
1.333,-9.733,0.233,3.498
1.47,-9.67,0.148,3.503
1.681,-9.681,-0.107,3.505
1.637,-9.737,0.015,3.506
0.956,-9.622,-0.656,3.599
0.949,-9.562,-0.44,3.6
1.17,-9.597,-0.424,3.602
1.436,-9.564,-0.891,3.604
1.32,-9.535,-0.484,3.605
1.708,-9.414,-0.554,3.699
2.068,-9.543,-0.786,3.7
2.074,-9.604,-1.001,3.702
2.537,-9.64,-1.21,3.704
2.306,-9.861,-1.015,3.705
3.047,-9.808,-1.102,3.799
3.833,-9.033,-0.833,3.8
4.252,-9.515,-0.779,3.806
3.975,-9.981,-1.12,3.816
4.313,-8.498,-1.249,3.817
5.896,-6.955,-2.08,3.899
6.52,-7.124,-3.902,3.9
6.565,-5.718,-3.727,3.902
5.504,-5.145,-3.32,3.904
5.771,-4.486,-3.257,3.905
6.206,-5.543,-2.011,3.999
4.56,-6.081,-2.428,4.001
4.302,-5.396,-2.362,4.002
4.555,-5.389,-2.804,4.004
5.468,-6.164,-3.174,4.006
5.453,-7.715,-3.598,4.101
4.9,-10.188,-1.253,4.103
5.3,-14.559,-0.735,4.104
5.133,-13.967,1.767,4.106
3.977,-16.514,18.269,4.108
3.524,-2.912,14.892,4.199
4.741,-6.62,3.653,4.201
1.833,-4.816,1.222,4.21
-1.765,-5.567,1.555,4.212
0.316,-6.608,2.661,4.213
-0.02,-6.5,7.86,4.299
1.553,-7.233,11.707,4.301
3.88,-6.7,10.16,4.302
2.269,-7.422,6.938,4.304
1.516,-7.489,4.831,4.306
1.784,-6.911,4.769,4.398
2.293,-7.233,6.387,4.4
1.515,-7.44,7.233,4.402
1.097,-6.617,8.069,4.403
2.054,-6.024,9.147,4.409
1.47,-5.408,8.945,4.475
1.011,-4.847,7.583,4.477
0.358,-4.26,6.862,4.478
1.5,-2.24,6.82,4.484
0.436,-1.836,7.009,4.486
-0.709,-1.491,7.973,4.604
0.382,-2.002,9.805,4.615
-2.936,-1.584,9.551,4.618
-4.573,5.033,11.502,4.62
2.02,7.2,12.36,4.703
-0.82,9.8,15.24,4.704
-1.2,2.2,10.9,4.706
-1.24,-1.0,8.18,4.707
-0.96,-1.7,8.22,4.709
-0.22,-2.4,9.04,4.711
1.108,-4.277,9.131,4.799
1.655,-3.949,8.948,4.801
1.691,-3.212,8.736,4.802
0.987,-2.568,9.204,4.804
0.598,-1.878,9.934,4.806
0.637,-1.474,10.121,4.9
0.4,-1.5,9.8,4.901
0.164,-2.237,9.412,4.903
0.026,-2.864,9.191,4.905
0.145,-2.851,9.352,4.906
0.42,-2.498,9.493,5.0
0.518,-2.276,9.527,5.008
0.478,-2.38,9.441,5.01
0.478,-2.38,9.441,5.012
0.38,-2.302,9.507,5.013
0.38,-2.002,9.607,5.099
0.498,-1.878,9.634,5.1
0.478,-1.78,9.641,5.102
0.4,-1.8,9.7,5.104
0.4,-1.8,9.7,5.11
0.419,-1.787,9.56,5.198
0.36,-1.904,9.613,5.2
0.458,-1.982,9.547,5.201
0.478,-2.08,9.541,5.209
0.498,-2.178,9.534,5.299
0.438,-2.185,9.454,5.3
0.498,-2.178,9.534,5.302
0.42,-2.198,9.593,5.304
0.498,-2.178,9.534,5.305
0.36,-2.204,9.513,5.399
0.438,-2.185,9.454,5.4
0.38,-2.302,9.507,5.402
0.36,-2.204,9.513,5.404
0.36,-2.204,9.513,5.405
0.4,-2.1,9.6,5.499
0.341,-2.107,9.52,5.5
0.341,-2.107,9.52,5.502
0.341,-2.107,9.52,5.509
0.341,-2.107,9.52,5.511
0.4,-2.1,9.6,5.599
0.478,-2.08,9.541,5.6
0.4,-2.1,9.6,5.602
0.498,-2.178,9.534,5.608
0.438,-2.185,9.454,5.61
0.301,-2.211,9.433,5.699
0.301,-2.211,9.433,5.705
0.281,-2.113,9.44,5.707
0.341,-2.107,9.52,5.709
0.322,-2.12,9.659,5.718
0.42,-2.198,9.593,5.799
0.4,-2.1,9.6,5.8
0.341,-2.107,9.52,5.802
0.341,-2.107,9.52,5.807
0.341,-2.107,9.52,5.809
0.341,-2.107,9.52,5.899
0.341,-2.107,9.52,5.901
0.36,-2.204,9.513,5.902
0.438,-2.185,9.454,5.904
0.498,-2.178,9.534,5.906
0.498,-2.178,9.534,6.002
0.36,-2.204,9.513,6.004
0.301,-2.211,9.433,6.006
0.341,-2.107,9.52,6.007
0.341,-2.107,9.52,6.009
0.263,-2.126,9.579,6.099
0.341,-2.107,9.52,6.1
0.341,-2.107,9.52,6.102
0.4,-2.1,9.6,6.111
0.341,-2.107,9.52,6.118
0.341,-2.107,9.52,6.199
0.301,-2.211,9.433,6.2
0.36,-2.204,9.513,6.202
0.36,-2.204,9.513,6.204
0.341,-2.107,9.52,6.205
0.36,-2.204,9.513,6.298
0.341,-2.107,9.52,6.3
0.263,-2.126,9.579,6.302
0.282,-2.224,9.573,6.303
0.301,-2.211,9.433,6.305
0.36,-2.204,9.513,6.401
0.42,-2.198,9.593,6.402
0.4,-2.1,9.6,6.404
0.341,-2.107,9.52,6.405
0.36,-2.204,9.513,6.407
0.36,-2.204,9.513,6.504
0.341,-2.107,9.52,6.512
0.341,-2.107,9.52,6.522
0.341,-2.107,9.52,6.524
0.36,-2.204,9.513,6.526
0.341,-2.107,9.52,6.598
0.341,-2.107,9.52,6.6
0.341,-2.107,9.52,6.602
0.36,-2.204,9.513,6.603
0.36,-2.204,9.513,6.605
0.36,-2.204,9.513,6.698
0.36,-2.204,9.513,6.7
0.36,-2.204,9.513,6.702
0.36,-2.204,9.513,6.708
0.36,-2.204,9.513,6.709
0.4,-2.1,9.6,6.798
0.341,-2.107,9.52,6.8
0.36,-2.204,9.513,6.802
0.341,-2.107,9.52,6.803
0.341,-2.107,9.52,6.805
0.341,-2.107,9.52,6.898
0.341,-2.107,9.52,6.907
0.341,-2.107,9.52,6.915
0.341,-2.107,9.52,6.916
0.282,-2.224,9.573,6.998
0.341,-2.107,9.52,7.0
0.243,-2.029,9.586,7.005
0.125,-2.153,9.558,7.007
0.165,-2.048,9.645,7.008
0.166,-1.559,9.978,7.074
0.498,-1.578,9.734,7.076
1.007,-1.766,9.498,7.078
0.322,-2.72,9.459,7.079
0.712,-2.921,9.063,7.081
0.427,-2.967,9.002,7.198
0.455,-2.975,9.224,7.2
0.627,-2.847,9.342,7.201
0.809,-2.309,9.427,7.203
0.927,-2.187,9.462,7.3
0.627,-2.247,9.542,7.304
0.391,-2.191,9.573,7.313
0.191,-2.331,9.593,7.318
0.082,-2.342,9.425,7.325
0.082,-2.342,9.425,7.327
0.091,-2.251,9.653,7.428
0.091,-1.951,9.753,7.43
0.173,-1.933,9.698,7.433
0.118,-2.238,9.515,7.435
0.055,-2.655,9.464,7.437
0.064,-2.544,9.331,7.498
0.236,-2.716,9.349,7.5
0.391,-2.491,9.473,7.505
0.527,-2.467,9.502,7.506
0.527,-2.467,9.502,7.508
0.473,-2.473,9.418,7.598
0.436,-2.576,9.329,7.6
0.373,-2.693,9.378,7.601
0.355,-2.595,9.384,7.607
0.155,-2.435,9.504,7.609
0.118,-2.238,9.515,7.732
0.1,-2.14,9.52,7.733
0.173,-2.233,9.598,7.735
0.255,-2.215,9.544,7.737
0.273,-2.313,9.538,7.738
2.064,0.196,12.511,7.798
1.145,-5.545,10.136,7.8
1.782,-3.582,11.745,7.801
-1.373,2.813,8.962,7.803
0.564,-2.884,7.951,7.812
-0.5,-2.52,8.86,7.898
0.3,-3.54,9.72,7.9
0.791,-2.831,9.593,7.902
0.255,-2.195,9.184,7.908
0.164,-2.324,9.371,7.909
0.209,-2.129,9.687,8.003
0.327,-2.007,9.722,8.004
0.209,-2.429,9.587,8.006
0.182,-2.422,9.365,8.008
0.182,-2.422,9.365,8.019
0.136,-2.336,9.509,8.098
0.273,-2.313,9.538,8.1
0.373,-2.393,9.478,8.102
0.427,-2.387,9.562,8.103
0.355,-2.295,9.484,8.105
0.318,-2.398,9.395,8.198
0.455,-2.375,9.424,8.2
0.455,-2.375,9.424,8.204
0.436,-2.276,9.429,8.21
0.473,-2.173,9.518,8.212
0.336,-2.196,9.489,8.3
0.273,-2.313,9.538,8.302
0.273,-2.313,9.538,8.304
0.255,-2.215,9.544,8.305
0.273,-2.313,9.538,8.307
0.373,-2.393,9.478,8.378
0.391,-2.491,9.473,8.38
0.491,-2.571,9.413,8.399
-2.182,-1.778,2.735,8.411
-1.882,-5.078,8.135,8.413
