vertical_Accel_x,vertical_Accel_y,vertical_Accel_z,accel_time_list
6.037,-8.599,6.496,0.0
2.355,-7.436,3.945,0.001
4.477,-6.214,7.657,0.003
3.525,-5.502,9.308,0.009
4.441,-5.931,5.425,0.106
4.076,-5.306,7.724,0.111
3.774,-5.79,6.96,0.113
3.72,-6.062,6.446,0.118
3.926,-6.11,6.84,0.225
3.924,-6.194,6.476,0.227
4.137,-5.999,6.896,0.229
4.13,-5.842,6.97,0.23
4.051,-5.804,7.016,0.232
3.978,-5.922,6.989,0.327
3.933,-5.867,6.867,0.329
3.912,-5.797,6.988,0.33
3.999,-5.592,6.968,0.332
4.079,-5.63,6.921,0.333
3.94,-5.623,6.893,0.335
3.758,-5.561,6.742,0.425
3.772,-5.474,6.695,0.427
3.844,-5.356,6.722,0.429
3.837,-5.199,6.796,0.43
3.647,-4.98,6.719,0.432
3.371,-4.566,6.763,0.5
2.782,-4.155,6.918,0.503
2.739,-4.015,7.161,0.505
2.125,-4.102,6.608,0.507
0.192,-3.855,6.353,0.511
-0.346,-4.685,4.862,0.623
-0.646,-4.885,4.362,0.625
-1.819,-5.064,3.625,0.627
-1.562,-5.792,2.81,0.629
-0.854,-7.001,0.977,0.726
-0.939,-8.054,-0.48,0.728
-1.389,-9.225,-1.406,0.73
-1.498,-9.885,-1.101,0.736
-1.867,-10.133,-2.067,0.738
-0.718,-10.22,-2.991,0.753
1.636,-8.474,-6.508,0.826
1.028,-8.352,-4.684,0.828
-0.384,-7.845,-4.147,0.831
0.338,-7.346,-5.515,0.836
0.454,-6.285,-5.862,0.839
1.372,-4.781,-5.34,0.924
-0.37,-6.674,-6.087,0.926
-0.385,-6.877,-3.1,0.928
0.189,-16.016,-14.829,0.929
16.131,-17.654,-24.8,0.931
5.4,-16.3,-11.8,1.026
10.306,-7.745,-4.97,1.027
8.512,-3.991,-5.04,1.029
5.808,-2.094,-5.427,1.031
4.707,-2.52,-6.048,1.032
2.845,-4.866,-7.047,1.125
1.942,-6.743,-8.312,1.127
1.792,-7.706,-8.673,1.129
1.32,-7.61,-8.289,1.14
1.446,-5.44,-7.426,1.151
1.716,-4.488,-7.254,1.226
1.464,-3.902,-7.658,1.232
2.03,-4.853,-8.572,1.234
1.788,-6.809,-8.46,1.236
1.9,-6.8,-7.7,1.237
2.628,-5.504,-7.415,1.325
2.132,-5.501,-6.829,1.327
2.633,-5.375,-7.207,1.329
2.888,-6.109,-7.96,1.33
2.271,-7.122,-7.606,1.332
2.7,-6.4,-7.7,1.425
3.689,-4.996,-6.455,1.433
2.821,-6.009,-6.189,1.435
2.634,-7.394,-5.683,1.436
2.389,-7.196,-6.555,1.438
2.749,-6.96,-6.626,1.525
2.604,-5.762,-6.898,1.527
2.726,-6.07,-6.887,1.539
1.828,-6.251,-7.536,1.541
1.364,-6.326,-8.168,1.55
0.589,-6.696,-7.255,1.625
0.591,-5.977,-7.104,1.627
1.734,-5.894,-7.383,1.629
1.121,-6.209,-8.589,1.63
0.817,-7.247,-6.091,1.632
1.472,-7.749,-5.564,1.724
1.755,-6.402,-8.272,1.726
1.034,-5.494,-8.483,1.731
0.953,-7.421,-6.123,1.733
0.345,-6.898,-5.628,1.829
-0.364,-6.774,-7.132,1.831
0.528,-5.851,-7.436,1.833
0.266,-5.506,-7.617,1.834
0.415,-6.266,-7.843,1.836
0.034,-6.994,-7.683,1.925
0.434,-7.594,-7.083,1.927
-0.045,-7.902,-5.872,1.939
-0.189,-7.504,-5.845,1.941
0.189,-6.896,-7.555,1.952
2.09,-6.616,-7.106,2.025
1.006,-5.81,-6.416,2.027
0.347,-4.945,-7.492,2.029
0.229,-5.614,-10.143,2.031
-0.018,-5.369,-8.251,2.033
-0.369,-6.851,-8.782,2.126
-0.945,-4.892,-9.047,2.127
-0.714,-6.643,-7.929,2.129
-1.598,-7.037,-7.639,2.131
-1.663,-7.661,-5.098,2.132
-0.659,-8.135,-6.476,2.225
-0.604,-5.827,-8.622,2.227
-0.49,-5.184,-8.194,2.229
-0.69,-6.384,-6.294,2.23
-0.057,-6.271,-7.214,2.238
2.164,-6.056,-7.238,2.326
1.718,-6.822,-7.031,2.338
0.653,-7.067,-5.593,2.34
0.984,-6.956,-6.498,2.342
1.027,-5.333,-9.147,2.349
2.46,-5.16,-8.643,2.428
2.375,-5.375,-7.865,2.43
2.149,-4.749,-7.729,2.432
2.269,-5.069,-8.716,2.433
3.011,-3.911,-9.356,2.435
3.316,-3.912,-8.98,2.524
2.328,-4.896,-7.14,2.526
1.236,-3.852,-7.38,2.528
2.061,-9.069,-3.48,2.529
2.133,-5.084,-9.322,2.531
1.763,-8.13,-6.984,2.625
-0.434,-6.003,-7.358,2.626
-0.369,-6.924,-5.567,2.633
0.22,-8.322,-6.095,2.635
1.941,-7.735,-6.715,2.636
1.68,-6.378,-7.605,2.725
1.158,-7.074,-6.76,2.726
0.519,-6.931,-5.77,2.732
3.4,-7.4,-6.6,2.734
2.771,-6.586,-6.643,2.735
2.286,-6.133,-7.281,2.825
1.903,-5.773,-7.924,2.826
2.463,-6.288,-7.349,2.828
2.972,-6.208,-8.12,2.83
2.461,-6.372,-6.866,2.831
1.675,-6.439,-7.585,2.925
2.04,-7.043,-7.317,2.926
1.224,-5.903,-8.073,2.928
0.903,-7.673,-7.224,2.93
1.192,-6.48,-7.428,2.933
3.051,-6.879,-6.083,3.025
3.239,-6.459,-5.862,3.027
3.453,-7.351,-6.794,3.035
3.638,-5.773,-7.007,3.037
2.001,-5.686,-6.555,3.048
2.375,-7.247,-6.714,3.125
3.97,-7.157,-5.261,3.126
3.148,-6.983,-5.104,3.128
3.161,-7.587,-5.578,3.13
3.826,-7.509,-5.048,3.131
1.93,-6.584,-6.463,3.225
1.297,-7.142,-6.634,3.226
1.805,-7.531,-6.777,3.228
1.825,-7.453,-6.986,3.23
1.369,-6.23,-6.481,3.231
1.418,-8.382,-2.355,3.324
3.336,-9.704,-3.289,3.326
2.506,-8.785,-2.794,3.328
0.759,-7.787,-2.775,3.329
0.189,-10.111,-2.044,3.425
1.403,-8.842,-2.797,3.426
2.494,-9.015,-3.906,3.428
3.319,-10.235,-3.914,3.43
1.005,-8.304,-3.462,3.441
0.107,-9.166,-3.426,3.525
1.282,-9.645,-2.818,3.526
3.565,-9.772,-3.069,3.531
2.311,-9.489,-4.256,3.533
-0.021,-9.203,-2.221,3.535
2.316,-9.793,-3.617,3.626
1.954,-9.983,-3.313,3.628
0.369,-8.495,-2.498,3.63
0.771,-9.057,-2.863,3.632
1.834,-10.147,-2.999,3.633
1.077,-8.841,-2.857,3.724
0.62,-9.116,-3.046,3.726
0.988,-9.23,-2.712,3.733
1.081,-9.265,-2.886,3.735
0.151,-8.84,-2.316,3.736
0.539,-8.852,-1.761,3.824
0.555,-8.564,-2.845,3.826
1.912,-9.87,-3.588,3.828
1.338,-9.271,-4.128,3.839
-0.42,-8.784,-3.554,3.849
2.542,-9.974,-2.794,3.925
2.617,-9.953,-3.211,3.927
0.613,-9.319,-2.175,3.929
1.342,-9.374,-2.094,3.93
0.926,-9.238,-1.851,3.932
1.63,-9.872,-2.187,4.024
1.234,-9.706,-1.723,4.026
-0.126,-8.262,-1.849,4.028
0.975,-10.179,-1.817,4.029
1.385,-10.064,-2.457,4.031
-0.551,-7.942,-1.766,4.124
1.313,-10.419,-2.175,4.126
1.975,-10.279,-1.617,4.128
0.475,-8.679,-1.617,4.129
1.125,-9.721,-1.983,4.131
0.994,-8.949,-1.896,4.224
1.93,-9.672,-1.787,4.225
1.225,-9.121,-1.983,4.237
0.34,-8.857,-1.626,4.239
1.013,-9.719,-1.475,4.242
2.258,-10.126,-2.206,4.328
0.172,-8.945,-1.781,4.33
1.334,-9.906,-1.523,4.331
2.63,-10.372,-1.887,4.333
0.245,-8.908,-1.43,4.335
1.221,-9.987,-1.547,4.424
1.175,-9.779,-1.617,4.431
0.345,-9.108,-1.23,4.432
1.602,-10.017,-1.168,4.434
1.191,-9.815,-1.16,4.436
0.532,-8.989,-0.855,4.525
1.092,-9.532,-0.828,4.526
1.604,-9.934,-0.636,4.528
1.0,-9.1,-0.2,4.53
1.93,-9.972,-0.387,4.531
1.523,-8.804,0.485,4.624
2.051,-9.658,0.466,4.649
3.053,-9.675,1.198,4.651
3.23,-9.772,1.513,4.653
2.491,-9.115,1.94,4.654
0.74,-9.009,0.885,4.728
1.055,-10.632,0.589,4.729
1.936,-11.104,0.734,4.731
2.602,-11.053,-0.525,4.733
3.028,-10.192,-0.868,4.734
-0.961,-8.817,-1.76,4.824
-2.811,-9.16,-1.118,4.826
-1.145,-11.17,1.659,4.828
-2.882,-13.523,-5.414,4.829
-4.77,-12.249,-8.212,4.831
-4.865,-8.847,-9.516,4.924
-2.973,-9.665,-4.918,4.926
-0.951,-8.09,-1.188,4.927
2.957,-8.171,-1.286,4.929
5.369,-8.394,-1.433,4.931
0.377,-9.831,-2.208,5.025
-1.376,-9.759,-4.195,5.026
-0.54,-12.951,-3.841,5.028
-3.148,-12.829,-5.706,5.03
-4.247,-7.566,-7.879,5.124
-2.399,-7.805,-9.608,5.129
1.382,-2.511,-9.64,5.131
5.043,-1.115,-8.587,5.132
3.775,-3.674,-9.873,5.134
4.126,-5.643,-6.809,5.224
3.279,-5.676,-6.382,5.226
0.922,-4.948,-5.096,5.227
1.737,-4.687,-3.61,5.229
1.933,-4.867,-4.033,5.231
1.706,-7.994,-2.741,5.324
2.722,-11.678,-2.451,5.326
2.349,-15.351,-0.943,5.327
2.531,-13.469,-0.22,5.329
3.863,-12.337,-1.439,5.331
4.014,-10.186,-1.296,5.425
2.318,-9.782,-2.224,5.428
0.084,-7.816,-4.69,5.43
0.484,-6.916,-6.69,5.432
0.412,-6.388,-8.182,5.434
2.714,-5.931,-8.123,5.524
1.924,-6.059,-7.825,5.526
1.443,-6.134,-7.489,5.527
1.457,-6.626,-7.191,5.529
1.511,-6.744,-7.689,5.535
1.815,-6.993,-7.452,5.624
1.53,-7.085,-6.804,5.626
1.667,-6.967,-6.433,5.627
1.785,-7.007,-6.248,5.629
1.781,-7.359,-6.485,5.631
1.781,-7.459,-6.885,5.724
1.874,-7.463,-6.459,5.726
2.011,-7.344,-6.089,5.727
2.389,-7.156,-5.911,5.733
2.578,-7.111,-6.022,5.745
2.633,-7.533,-6.367,5.823
2.733,-7.733,-6.367,5.828
2.478,-7.611,-6.122,5.83
2.122,-7.289,-5.878,5.832
2.048,-7.026,-5.719,5.833
2.204,-6.948,-5.963,5.924
2.263,-7.119,-6.47,5.926
2.237,-7.181,-6.63,5.927
2.189,-6.956,-6.711,5.929
2.004,-6.748,-6.763,5.93
1.826,-6.637,-6.841,6.028
1.807,-6.796,-7.026,6.03
1.77,-7.015,-6.996,6.032
1.611,-7.344,-6.589,6.033
1.404,-7.448,-6.263,6.035
1.404,-7.448,-6.263,6.124
1.541,-7.43,-6.293,6.126
1.77,-7.515,-6.296,6.146
2.026,-7.537,-6.141,6.158
2.196,-7.552,-6.037,6.161
2.752,-7.282,-6.05,6.224
2.829,-7.223,-6.226,6.225
2.776,-7.201,-6.355,6.227
2.686,-6.989,-6.437,6.23
2.576,-6.901,-6.455,6.234
2.414,-7.011,-6.563,6.324
2.195,-7.056,-6.559,6.325
2.067,-7.093,-6.513,6.327
2.119,-7.115,-6.384,6.329
2.081,-7.145,-6.296,6.33
2.3,-7.1,-6.3,6.424
2.448,-7.158,-6.37,6.426
2.576,-7.121,-6.415,6.427
2.538,-7.15,-6.328,6.429
2.538,-7.15,-6.328,6.431
2.538,-7.15,-6.328,6.524
2.448,-7.158,-6.37,6.525
2.319,-7.195,-6.324,6.537
2.229,-7.203,-6.366,6.539
2.21,-7.108,-6.342,6.548
2.21,-7.108,-6.342,6.623
2.376,-7.041,-6.475,6.625
2.395,-7.136,-6.499,6.627
2.357,-7.166,-6.411,6.628
2.357,-7.166,-6.411,6.724
2.319,-7.195,-6.324,6.725
2.319,-7.195,-6.324,6.727
2.41,-7.188,-6.282,6.729
2.429,-7.063,-6.346,6.73
2.376,-7.041,-6.475,6.824
2.376,-7.041,-6.475,6.825
2.376,-7.041,-6.475,6.831
2.229,-7.203,-6.366,6.833
2.19,-7.232,-6.278,6.834
2.19,-7.232,-6.278,6.924
2.19,-7.232,-6.278,6.925
2.229,-7.203,-6.366,6.937
2.229,-7.203,-6.366,6.939
2.1,-7.24,-6.32,6.94
2.19,-7.232,-6.278,7.024
2.248,-7.298,-6.39,7.025
2.305,-7.364,-6.501,7.027
2.452,-7.202,-6.61,7.032
2.51,-7.048,-6.762,7.034
2.49,-6.952,-6.738,7.135
2.338,-7.07,-6.388,7.136
2.148,-7.218,-5.95,7.138
1.99,-7.292,-5.358,7.14
1.976,-7.241,-5.575,7.141
2.076,-7.321,-6.015,7.224
2.114,-7.291,-6.103,7.225
2.133,-7.167,-6.167,7.227
2.076,-7.321,-6.015,7.229
2.262,-7.35,-6.172,7.23
2.543,-7.414,-6.529,7.324
2.424,-7.759,-6.925,7.336
2.448,-7.238,-7.31,7.339
2.767,-6.393,-7.913,7.341
2.833,-6.467,-7.567,7.343
2.333,-7.687,-6.027,7.424
2.662,-8.75,-4.872,7.425
2.462,-9.19,-5.792,7.427
2.514,-9.871,-5.543,7.428
3.229,-10.603,-4.566,7.43
1.349,-10.251,-7.643,7.523
2.275,-10.425,-8.722,7.528
0.735,-11.565,-6.047,7.529
0.549,-11.651,-5.043,7.531
1.782,-11.118,-5.276,7.533
1.3,-12.204,-3.047,7.624
1.1,-12.527,-2.888,7.625
1.2,-12.144,-2.736,7.627
1.7,-11.325,-2.828,7.628
1.6,-11.107,-2.194,7.63
0.012,-10.715,-0.515,7.723
0.446,-10.075,-0.975,7.725
0.21,-9.829,-0.029,7.727
0.493,-9.549,1.651,7.729
0.634,-8.86,1.94,7.731
0.777,-7.692,3.831,7.827
0.808,-6.769,4.023,7.829
0.708,-5.869,5.023,7.837
1.354,-5.385,5.662,7.838
1.718,-5.284,5.637,7.865
2.42,-4.312,6.167,7.936
1.865,-4.459,5.576,7.938
1.798,-4.439,5.363,7.939
2.143,-4.086,6.371,7.941
3.428,-4.226,5.505,7.942
3.308,-4.706,5.383,8.024
3.494,-4.721,5.638,8.025
3.266,-4.725,5.726,8.027
3.475,-4.657,5.93,8.029
3.798,-4.774,6.079,8.047
3.845,-4.534,6.098,8.134
3.864,-4.298,5.706,8.137
3.955,-4.566,5.702,8.139
4.138,-5.028,5.815,8.141
4.253,-5.44,5.981,8.143
4.257,-5.592,6.323,8.224
4.332,-5.649,6.853,8.225
4.24,-5.755,6.836,8.227
4.423,-5.917,6.849,8.229
4.404,-5.853,7.142,8.234
4.406,-5.779,7.262,8.323
4.568,-5.951,7.447,8.324
4.5,-5.9,7.5,8.326
4.289,-5.742,7.075,8.328
4.449,-5.687,7.04,8.425
4.542,-5.581,7.057,8.427
4.517,-5.438,6.887,8.429
4.423,-5.317,6.649,8.431
4.215,-5.311,6.566,8.443
