vertical_Accel_x,vertical_Accel_y,vertical_Accel_z,accel_time_list
0.866,8.429,-7.583,0.0
2.167,8.767,-7.167,0.002
3.493,8.533,-5.213,0.004
1.39,7.319,-4.862,0.103
0.222,6.976,-5.328,0.104
0.562,7.176,-5.448,0.106
0.163,7.414,-5.931,0.111
1.889,8.843,-5.494,0.113
2.643,8.714,-4.071,0.114
0.962,7.776,-5.648,0.202
0.954,7.871,-5.677,0.204
0.954,7.871,-5.677,0.206
0.649,7.743,-5.674,0.207
0.928,7.705,-5.53,0.209
1.006,7.529,-5.103,0.21
1.138,7.524,-5.152,0.301
1.459,7.462,-5.096,0.302
0.798,7.324,-5.032,0.304
0.798,7.324,-5.032,0.306
1.516,7.184,-4.51,0.402
1.169,7.131,-4.38,0.403
1.122,6.278,-5.551,0.405
-0.018,7.818,-2.876,0.406
-0.388,7.888,-2.682,0.408
-1.006,7.406,-4.459,0.523
0.304,7.996,-4.027,0.525
0.951,8.349,-4.157,0.526
0.745,8.955,-4.616,0.528
-0.398,9.098,-3.914,0.53
-0.25,9.303,-4.104,0.579
0.169,9.416,-3.454,0.58
0.526,9.454,-3.106,0.582
0.382,9.393,-4.157,0.588
0.235,9.608,-4.977,0.59
1.14,9.98,-1.4,0.675
1.48,9.36,0.4,0.677
1.356,9.292,1.6,0.678
0.672,9.804,1.4,0.68
0.204,9.628,0.7,0.801
0.916,9.212,0.4,0.802
2.781,8.518,0.273,0.804
2.957,8.681,0.96,0.805
2.321,9.01,2.37,0.807
0.741,9.394,3.294,0.903
0.024,9.482,2.982,0.905
-0.002,9.443,1.843,0.91
0.471,9.247,0.347,0.911
0.455,8.592,-0.508,0.913
0.42,7.269,-0.031,0.914
1.291,5.883,1.547,1.001
0.53,5.36,1.736,1.005
-0.166,5.568,2.313,1.007
-1.687,5.726,3.23,1.009
-4.206,5.587,4.385,1.011
-3.072,5.728,7.76,1.101
-4.569,5.831,9.184,1.103
-5.654,5.946,10.605,1.104
-6.783,6.117,12.804,1.12
-7.487,6.013,15.638,1.121
0.196,1.384,19.296,1.202
1.74,-0.554,18.74,1.204
2.522,-1.305,16.622,1.209
2.051,0.093,14.451,1.21
1.588,-0.118,12.588,1.212
0.945,2.775,10.734,1.301
0.781,3.672,9.342,1.303
0.516,3.983,8.647,1.304
0.275,3.653,9.224,1.306
-0.258,3.316,10.125,1.308
-0.7,1.24,10.68,1.401
-0.6,0.36,10.52,1.407
-0.1,-0.204,10.372,1.409
0.2,-0.576,10.168,1.411
0.2,-1.444,9.692,1.412
0.928,-5.596,7.172,1.501
1.32,-5.483,6.78,1.503
1.252,-5.021,7.048,1.512
0.983,-4.56,7.117,1.514
0.872,-4.504,7.328,1.521
1.678,-5.449,7.222,1.601
1.959,-5.412,7.741,1.603
2.48,-5.063,7.82,1.604
2.473,-5.008,7.627,1.606
2.91,-6.169,7.59,1.608
2.667,-4.667,8.133,1.701
3.004,-0.927,9.396,1.703
3.133,2.167,10.067,1.708
4.008,2.045,9.892,1.709
3.867,-0.233,10.433,1.712
3.355,-4.084,10.145,1.826
2.363,-5.639,9.637,1.828
1.573,-6.108,9.327,1.829
1.037,-6.761,9.163,1.831
0.68,-7.663,8.92,1.833
0.765,-8.353,9.135,1.902
1.067,-8.767,9.733,1.912
1.653,-8.271,9.747,1.914
2.084,-6.69,8.516,1.915
1.827,-5.292,7.573,1.917
1.304,-4.527,7.396,1.918
1.029,-4.306,7.471,2.007
1.484,-4.49,7.816,2.008
1.186,-5.004,8.514,2.01
0.937,-5.261,8.763,2.101
0.8,-5.5,8.7,2.103
0.929,-5.906,8.371,2.104
0.908,-6.155,8.092,2.106
0.808,-6.155,7.992,2.107
-0.038,-6.197,7.89,2.201
0.182,-5.934,8.001,2.203
-0.018,-5.534,7.901,2.204
-0.073,-4.949,7.348,2.206
0.145,-4.616,6.847,2.211
0.444,-3.489,7.189,2.301
0.489,-3.578,7.178,2.31
0.622,-3.624,7.184,2.312
1.0,-3.64,7.02,2.314
1.4,-3.78,7.04,2.32
1.889,-3.878,7.078,2.404
1.922,-3.984,7.164,2.406
1.622,-3.944,7.444,2.408
1.433,-3.987,7.927,2.409
1.389,-4.278,8.278,2.411
1.344,-4.569,8.629,2.503
1.344,-4.729,9.009,2.505
1.578,-4.876,9.316,2.506
1.756,-4.951,9.731,2.508
1.222,-5.084,10.464,2.51
2.667,-4.813,11.278,2.601
2.728,-4.998,11.957,2.608
2.739,-5.215,11.22,2.609
3.348,-4.955,9.117,2.611
3.785,-4.832,7.405,2.613
3.229,-6.006,6.271,2.7
2.427,-5.892,7.273,2.706
1.947,-6.129,7.953,2.707
2.139,-6.075,7.961,2.709
2.222,-5.651,8.078,2.71
1.575,-4.922,8.625,2.826
1.218,-4.424,8.782,2.831
1.616,-4.61,7.984,2.832
2.08,-5.063,7.42,2.834
1.886,-5.504,7.614,2.836
0.963,-7.878,5.935,2.878
0.758,-8.195,5.337,2.879
1.295,-7.917,4.102,2.881
1.126,-7.736,3.729,2.883
1.295,-7.917,4.102,2.884
2.016,-7.709,4.414,2.886
3.406,-7.7,3.624,3.0
3.416,-7.733,3.996,3.003
3.192,-7.433,4.002,3.005
3.188,-7.0,3.853,3.102
3.371,-7.0,3.982,3.104
3.163,-7.533,4.584,3.105
2.773,-7.767,5.057,3.107
2.812,-7.4,4.847,3.109
3.1,-7.4,3.9,3.114
3.004,-7.833,3.649,3.205
2.245,-8.233,3.714,3.207
1.084,-7.251,4.306,3.208
1.421,-6.353,3.732,3.21
1.653,-5.592,3.299,3.212
2.351,-5.027,3.771,3.301
3.18,-4.8,3.74,3.302
3.249,-3.873,3.029,3.304
3.693,-2.682,2.333,3.306
4.576,-2.291,2.056,3.307
5.056,-4.265,1.092,3.401
4.309,-5.807,0.642,3.402
4.229,-6.343,0.967,3.404
2.15,-7.48,-0.307,3.414
0.874,-9.619,-1.011,3.416
-0.043,-14.429,2.286,3.5
-3.051,-17.796,6.759,3.502
-2.204,-12.484,4.237,3.507
-2.631,-11.078,2.076,3.508
-10.492,-16.283,1.564,3.604
-11.183,-18.166,4.627,3.614
-7.951,-15.203,5.556,3.616
-6.744,-15.488,5.957,3.617
-4.03,-15.944,7.577,3.619
-5.345,-14.54,11.836,3.7
-3.628,-18.162,8.685,3.702
-3.743,-17.875,9.53,3.703
-4.362,-15.317,10.187,3.705
-0.303,-15.624,9.156,3.707
6.099,-12.129,10.129,3.801
5.371,-10.049,9.249,3.802
2.531,-10.592,7.192,3.804
1.732,-9.663,5.163,3.821
4.324,-6.197,5.197,3.823
6.316,-1.316,6.605,3.901
5.332,-1.432,6.411,3.902
3.061,-2.028,7.198,3.904
3.274,-2.374,7.358,3.906
3.766,-2.497,7.429,3.907
5.452,-1.604,7.183,4.0
5.126,-2.552,7.491,4.002
6.961,3.978,11.113,4.004
9.178,0.943,14.374,4.005
9.287,-8.474,7.504,4.007
11.169,-10.239,-0.18,4.1
6.892,-7.984,5.739,4.102
4.008,-7.116,9.361,4.104
3.418,-7.537,9.288,4.105
2.943,-8.586,9.171,4.107
1.219,-5.715,11.141,4.2
0.804,-5.763,10.848,4.202
-1.437,-4.67,11.419,4.212
-3.256,-3.956,12.478,4.213
-3.363,-5.73,11.281,4.215
-1.419,-8.579,9.119,4.3
-0.441,-8.975,8.641,4.302
-0.735,-6.972,8.435,4.311
-0.9,-6.1,7.4,4.317
-0.037,-6.241,7.474,4.318
-0.418,-6.142,8.555,4.4
-0.873,-6.481,8.418,4.402
-1.537,-6.683,7.911,4.404
-1.674,-6.967,7.021,4.411
-1.9,-7.811,5.74,4.414
-1.2,-7.483,5.591,4.504
-0.9,-6.879,5.377,4.506
-0.2,-6.826,5.292,4.508
0.4,-7.26,5.611,4.509
0.3,-6.985,5.547,4.511
0.1,-6.17,4.994,4.6
-0.54,-6.355,3.702,4.611
-0.5,-6.8,3.6,4.613
-0.754,-7.257,3.73,4.614
-0.555,-7.169,3.425,4.616
-0.257,-7.244,1.845,4.7
-0.084,-7.407,1.998,4.705
-0.247,-7.78,2.306,4.709
0.36,-7.739,2.317,4.711
0.211,-8.036,2.561,4.712
-0.1,-8.62,2.84,4.8
-0.4,-9.74,3.68,4.802
-0.7,-12.22,4.54,4.804
-1.0,-13.86,5.02,4.805
-0.6,-13.22,5.04,4.807
1.748,-12.387,5.057,4.9
1.426,-12.157,5.422,4.902
1.339,-11.635,5.783,4.904
1.339,-11.635,5.783,4.912
0.83,-12.083,5.809,4.915
-0.214,-10.433,7.178,5.001
-0.067,-9.233,5.967,5.006
0.261,-8.567,4.81,5.008
0.512,-8.1,4.147,5.01
0.863,-7.933,3.884,5.011
1.08,-7.733,3.655,5.102
1.2,-7.3,3.1,5.104
1.453,-7.5,2.512,5.106
1.037,-8.067,2.016,5.108
1.275,-9.233,0.831,5.114
2.636,-9.551,0.889,5.2
2.66,-8.38,1.7,5.201
2.524,-7.829,2.511,5.203
3.898,-7.089,3.386,5.21
5.357,-7.286,2.971,5.3
5.151,-6.753,3.029,5.302
4.685,-5.523,3.7,5.303
4.751,-4.753,3.929,5.305
5.246,-4.531,4.0,5.31
3.955,-2.682,6.759,5.403
4.742,-3.473,7.364,5.405
5.216,-4.254,8.173,5.407
4.946,-4.433,9.234,5.409
4.792,-4.265,9.967,5.41
5.315,-4.239,10.18,5.5
5.502,-3.43,10.185,5.502
5.622,-2.359,10.321,5.503
5.432,-1.708,10.146,5.505
5.316,-1.654,9.673,5.511
2.952,0.02,10.464,5.6
3.464,0.04,10.848,5.602
2.984,0.74,10.488,5.603
2.748,1.98,9.436,5.605
3.368,2.88,8.276,5.608
4.068,2.98,7.676,5.7
4.032,3.22,8.024,5.702
3.376,3.86,8.032,5.704
2.928,3.68,8.196,5.706
3.052,3.72,7.664,5.715
0.09,5.693,6.771,5.8
-1.99,6.907,7.229,5.802
2.477,5.174,6.563,5.803
2.349,5.565,5.954,5.805
0.057,5.583,6.521,5.811
0.306,5.343,6.147,5.9
0.315,5.566,6.143,5.902
-0.315,6.034,5.957,5.905
-0.523,5.511,6.262,5.907
0.534,5.794,6.783,5.91
-0.16,6.501,5.562,6.0
-0.405,7.877,4.558,6.001
-1.003,7.986,4.575,6.003
-0.221,7.197,5.415,6.005
-0.63,7.15,5.431,6.011
-0.555,7.624,5.604,6.1
0.988,8.339,5.291,6.102
0.052,8.362,5.171,6.103
-0.221,8.093,5.507,6.117
-0.169,8.154,5.778,6.128
-1.9,8.206,5.93,6.2
-1.7,8.449,5.728,6.202
-2.0,8.417,5.591,6.203
-1.7,8.183,5.209,6.207
-1.4,8.045,5.242,6.208
-0.9,8.13,5.294,6.3
-1.1,7.749,5.528,6.302
-1.2,7.802,5.443,6.304
-1.5,7.802,5.443,6.305
-0.9,7.866,5.719,6.307
-0.8,7.781,5.666,6.4
-1.0,7.834,5.581,6.401
-1.0,8.183,5.209,6.403
-1.0,8.543,5.198,6.405
-1.3,8.564,4.975,6.406
-0.9,8.194,5.57,6.5
-0.6,8.417,5.591,6.501
-1.2,8.47,5.506,6.511
-1.2,8.332,5.538,6.513
-1.2,8.3,5.4,6.514
-0.8,8.681,5.166,6.603
-0.8,8.215,5.347,6.605
-0.5,8.194,5.57,6.607
-0.7,7.992,5.326,6.608
-0.8,7.855,5.358,6.61
-0.5,8.236,5.125,6.698
-0.8,8.162,5.432,6.7
0.0,8.66,5.389,6.706
-1.0,8.142,5.655,6.801
-0.8,8.194,5.57,6.803
-0.9,8.162,5.432,6.804
-0.3,8.417,5.591,6.811
-0.6,8.247,5.485,6.813
-0.7,8.194,5.57,6.815
-0.3,8.077,5.379,6.916
-1.0,8.13,5.294,6.919
-0.5,8.64,5.611,6.931
-0.6,8.47,5.506,6.933
-0.9,8.194,5.57,6.934
-1.2,7.972,5.549,7.041
-1.0,7.875,5.136,7.047
-1.4,8.415,4.647,7.048
-0.6,7.951,5.772,7.05
-1.0,8.142,5.655,7.051
-1.2,8.215,5.347,7.1
-1.2,8.13,5.294,7.102
-1.3,8.045,5.242,7.103
-1.3,8.268,5.262,7.105
-1.1,8.406,5.23,7.107
-0.7,8.3,5.4,7.2
-0.4,7.76,5.889,7.202
-1.3,8.374,5.092,7.204
-0.8,8.406,5.23,7.206
-0.6,8.332,5.538,7.207
-0.4,8.438,5.368,7.3
-0.7,8.183,5.209,7.309
0.4,8.321,5.177,7.311
-0.2,8.13,5.294,7.313
-0.5,7.94,5.411,7.314
-0.5,7.992,5.326,7.4
-0.6,8.13,5.294,7.401
-0.5,8.183,5.209,7.403
-0.4,8.268,5.262,7.404
-0.5,8.215,5.347,7.406
-0.4,8.268,5.262,7.504
-0.7,8.162,5.432,7.506
-0.5,8.268,5.262,7.507
-0.5,8.353,5.315,7.509
-0.4,8.458,5.145,7.51
-0.5,8.458,5.145,7.594
-0.8,8.268,5.262,7.595
-0.5,8.268,5.262,7.597
-0.3,8.406,5.23,7.598
-0.5,8.3,5.4,7.604
-0.3,8.899,4.338,7.673
-0.9,8.855,4.428,7.674
-0.5,8.987,4.158,7.676
-0.3,8.899,4.338,7.678
-0.6,8.809,4.294,7.8
-0.7,8.809,4.294,7.801
-0.4,8.539,4.163,7.803
-0.2,8.813,4.742,7.805
-1.7,9.203,3.485,7.815
0.1,8.855,4.428,7.901
-0.5,8.853,4.204,7.902
-0.5,8.809,4.294,7.904
-0.6,8.809,4.294,7.906
-0.4,8.94,4.025,7.912
-0.2,9.076,4.202,7.914
-0.3,8.943,4.248,8.0
-0.3,8.897,4.115,8.001
-0.4,8.897,4.115,8.003
-0.2,8.94,4.025,8.004
-0.4,8.763,4.161,8.02
-0.4,8.673,4.117,8.108
0.3,9.028,3.845,8.11
-0.2,9.118,3.889,8.111
-0.3,8.894,3.891,8.113
-0.2,8.984,3.935,8.115
-0.1,8.94,4.025,8.2
-0.3,8.984,3.935,8.201
-0.2,8.984,3.935,8.203
-0.2,9.028,3.845,8.208
0.1,8.94,4.025,8.21
-0.2,8.894,3.891,8.3
-0.2,8.984,3.935,8.301
-0.1,9.074,3.979,8.303
-0.2,9.074,3.979,8.305
0.0,9.118,3.889,8.307
-0.2,9.028,3.845,8.403
-0.1,9.028,3.845,8.405
-0.3,8.894,3.891,8.407
-0.2,9.028,3.845,8.418
0.0,9.118,3.889,8.421
-0.2,9.028,3.845,8.543
-0.1,8.894,3.891,8.545
-0.1,8.984,3.935,8.546
-0.2,8.94,4.025,8.553
-0.1,8.94,4.025,8.627
0.2,8.984,3.935,8.629
0.0,9.028,3.845,8.63
-0.1,8.894,3.891,8.632
-0.1,8.938,3.801,8.633
0.1,9.028,3.845,8.703
0.0,9.074,3.979,8.705
0.0,9.164,4.022,8.706
0.0,9.164,4.022,8.708
-0.3,9.074,3.979,8.71
