vertical_Accel_x,vertical_Accel_y,vertical_Accel_z,accel_time_list
1.7,13.6,6.2,0.0
1.112,4.853,8.876,0.001
4.55,13.177,3.199,0.003
-1.713,12.592,-3.374,0.101
0.001,6.254,4.598,0.103
1.778,7.102,5.644,0.104
1.275,10.439,3.45,0.106
0.868,10.057,3.063,0.108
1.472,8.175,4.155,0.109
1.15,8.823,3.701,0.2
0.904,9.218,3.492,0.202
0.966,8.749,3.967,0.203
0.643,8.642,3.715,0.205
0.473,8.93,3.453,0.207
0.406,8.727,3.388,0.3
0.431,8.488,3.339,0.305
0.403,8.263,2.994,0.307
0.38,7.811,2.74,0.309
0.342,7.287,2.417,0.31
0.251,6.632,2.097,0.401
0.085,6.083,1.83,0.403
-0.209,5.51,1.618,0.405
-0.723,4.948,1.446,0.407
-1.563,4.215,1.527,0.408
-1.555,3.533,2.986,0.5
-2.663,3.367,4.284,0.501
-3.51,3.367,5.873,0.503
-4.602,4.033,6.575,0.508
-5.637,4.333,6.816,0.509
-2.9,-1.165,10.259,0.6
-4.1,-1.935,10.641,0.602
-5.133,-2.08,11.055,0.603
-5.833,-2.316,11.496,0.606
-5.767,-3.225,12.069,0.613
-1.721,-6.057,12.783,0.7
-1.249,-6.502,12.981,0.701
-0.943,-6.815,13.366,0.703
-0.596,-7.409,13.023,0.705
3.545,4.111,21.396,0.716
3.448,-2.89,25.062,0.8
3.955,-28.281,-15.456,0.801
1.59,-18.538,-9.588,0.803
3.149,-10.914,-2.603,0.818
1.94,-8.3,3.08,0.82
0.655,-7.964,2.155,0.899
0.511,-8.333,-0.809,0.9
0.811,-8.233,0.291,0.902
1.345,-8.536,2.445,0.904
1.527,-9.582,2.327,0.905
0.816,-9.565,4.253,0.999
0.629,-9.414,4.643,1.001
0.376,-8.902,5.22,1.008
0.267,-8.669,5.694,1.01
0.443,-8.271,6.214,1.011
1.1,-6.694,7.73,1.099
1.3,-6.577,7.921,1.101
1.4,-6.63,8.006,1.107
1.4,-7.023,7.879,1.119
1.3,-7.585,7.647,1.121
1.82,-6.285,8.639,1.199
1.312,-6.263,8.665,1.201
0.66,-5.943,8.719,1.203
0.277,-0.774,11.37,1.21
0.141,0.929,11.478,1.212
-2.37,3.629,9.828,1.3
-2.202,2.225,9.851,1.303
-2.298,1.075,9.949,1.304
-1.992,0.201,9.994,1.306
-1.891,-0.661,9.668,1.307
-2.192,-1.199,9.494,1.399
-2.408,-1.901,9.106,1.406
-2.413,-2.289,8.935,1.407
-2.244,-2.555,8.833,1.409
-1.895,-2.312,8.971,1.411
-1.704,-2.904,8.827,1.499
-1.22,-2.32,9.037,1.501
-0.724,-2.024,9.165,1.513
-0.439,-1.939,9.275,1.516
-0.212,-2.112,9.182,1.524
0.18,-2.32,9.237,1.599
0.457,-2.743,9.302,1.601
0.539,-3.361,8.925,1.603
0.69,-4.01,8.669,1.604
0.502,-4.798,8.486,1.606
2.351,-6.256,7.291,1.699
2.507,-6.333,7.047,1.7
2.938,-6.289,6.898,1.705
2.663,-7.346,6.075,1.707
3.309,-5.744,7.329,1.811
3.069,-6.044,7.149,1.814
3.087,-6.133,7.107,1.816
2.971,-6.056,7.131,1.818
2.909,-6.144,7.529,1.819
-0.132,-6.387,8.034,1.899
-0.255,-6.798,7.872,1.901
-0.309,-6.977,7.996,1.913
-0.409,-6.977,8.196,1.915
-0.451,-7.16,8.074,1.917
-0.413,-7.115,7.994,1.999
-0.462,-6.855,7.619,2.008
-0.428,-6.949,7.336,2.009
-0.726,-7.23,7.287,2.011
-0.896,-7.462,7.202,2.013
-0.588,-6.472,8.43,2.099
-0.726,-6.606,8.316,2.101
0.476,-7.659,7.465,2.107
0.298,-7.963,7.339,2.109
0.053,-8.055,7.192,2.11
-2.034,-8.511,6.315,2.203
-1.691,-8.53,6.274,2.204
-1.742,-8.447,6.296,2.206
-1.928,-8.409,6.179,2.208
-1.942,-8.247,5.996,2.209
-0.609,-7.389,7.516,2.299
-0.264,-7.244,7.538,2.31
-0.044,-7.144,7.078,2.311
0.04,-7.3,6.78,2.314
0.124,-7.456,6.482,2.323
1.631,-7.502,5.96,2.399
1.889,-7.353,5.925,2.4
2.098,-7.473,5.523,2.402
1.935,-7.556,5.114,2.403
2.267,-7.471,5.063,2.407
3.87,-7.591,4.326,2.501
3.647,-7.958,3.896,2.504
3.651,-8.047,3.668,2.505
4.102,-7.994,3.436,2.507
4.211,-8.066,3.115,2.509
4.164,-8.208,2.819,2.599
4.277,-8.368,2.27,2.601
4.585,-8.645,1.813,2.602
4.719,-8.643,1.858,2.609
4.174,-8.479,1.698,2.61
6.126,-7.329,0.536,2.699
6.8,-7.68,-0.26,2.701
7.305,-7.558,-0.037,2.702
6.653,-7.239,0.012,2.708
6.895,-7.882,-0.543,2.71
8.011,-7.856,-0.754,2.799
7.589,-7.004,-0.266,2.801
6.716,-6.514,0.009,2.803
7.253,-6.699,-0.208,2.804
7.679,-6.488,-0.393,2.806
6.763,-5.631,1.953,2.899
7.357,-5.586,1.629,2.901
6.608,-5.227,1.633,2.902
6.953,-5.422,1.312,2.904
7.386,-6.129,0.743,2.906
7.871,-6.057,0.286,2.999
6.929,-6.243,0.414,3.001
6.206,-5.645,1.424,3.013
5.878,-5.802,1.51,3.015
5.494,-5.455,3.476,3.026
6.511,-5.816,1.526,3.099
6.179,-5.788,1.007,3.1
5.753,-6.799,1.092,3.102
8.532,-7.567,0.239,3.104
6.953,-5.799,1.592,3.105
7.367,-4.467,0.867,3.2
9.315,-5.67,-1.196,3.202
8.622,-5.656,-1.844,3.204
8.007,-5.085,-2.748,3.207
7.737,-5.026,-1.841,3.213
7.751,-3.931,-0.837,3.299
7.904,-4.644,-2.395,3.301
9.004,-4.944,-3.895,3.303
7.548,-4.108,-1.789,3.304
6.386,-4.006,-1.142,3.306
7.493,-5.473,-4.084,3.398
8.357,-5.897,-5.679,3.4
7.806,-5.566,-4.742,3.405
5.887,-5.867,-2.316,3.417
8.212,-3.221,-4.103,3.499
7.202,-4.02,-5.217,3.5
8.08,-4.598,-6.828,3.506
6.42,-4.367,-5.912,3.508
5.567,-4.412,-5.32,3.51
5.535,-4.324,-6.341,3.599
6.3,-4.3,-7.5,3.6
5.704,-4.073,-6.922,3.602
6.141,-4.435,-6.624,3.604
5.529,-5.114,-7.457,3.607
6.849,-2.04,-8.687,3.703
6.63,-2.632,-8.023,3.705
6.357,-2.723,-7.892,3.707
5.47,-2.868,-6.477,3.708
6.377,-2.651,-8.183,3.71
6.934,-3.174,-8.375,3.824
6.938,-3.015,-7.028,3.829
4.709,-4.304,-6.232,3.831
6.16,-1.764,-7.945,3.844
6.498,-2.979,-7.774,3.846
7.232,-2.653,-6.849,3.922
4.77,-3.768,-6.577,3.924
6.274,-3.209,-7.33,3.925
6.245,-2.798,-7.334,3.938
6.698,-2.179,-6.874,3.94
6.417,-3.387,-6.538,3.942
5.043,-5.177,-5.908,4.002
6.483,-1.913,-8.062,4.004
6.458,-1.443,-7.019,4.005
6.879,-3.672,-6.609,4.007
5.681,-5.338,-6.961,4.098
5.484,-4.231,-6.138,4.1
6.389,-3.122,-6.442,4.101
6.547,-3.806,-6.785,4.103
5.585,-5.429,-5.864,4.105
5.557,-5.329,-6.114,4.199
5.841,-4.135,-6.324,4.2
6.133,-5.188,-5.68,4.212
5.765,-5.776,-6.659,4.214
4.904,-5.073,-6.022,4.217
5.671,-4.886,-5.443,4.307
5.869,-5.149,-5.482,4.309
5.871,-4.886,-6.743,4.31
5.173,-5.422,-6.404,4.312
5.955,-5.792,-6.353,4.314
5.424,-5.341,-5.935,4.399
5.971,-4.986,-6.843,4.405
5.402,-5.337,-5.561,4.406
5.531,-5.251,-6.518,4.408
5.573,-4.522,-6.604,4.41
5.151,-5.418,-6.031,4.528
5.255,-5.392,-6.453,4.529
5.384,-5.006,-6.61,4.531
5.829,-4.814,-6.157,4.533
5.829,-4.814,-6.157,4.534
5.706,-5.01,-6.484,4.602
5.329,-5.114,-6.157,4.614
5.122,-5.404,-6.273,4.615
5.402,-5.137,-6.661,4.618
5.506,-4.81,-6.284,4.619
5.386,-5.443,-6.471,4.621
5.318,-5.231,-6.451,4.698
5.169,-5.049,-6.382,4.699
5.251,-5.018,-6.431,4.704
5.23,-4.539,-7.098,4.706
4.467,-6.067,-6.967,4.798
4.7,-5.8,-6.9,4.8
5.0,-5.1,-6.7,4.801
4.467,-5.267,-6.567,4.803
4.4,-6.1,-6.9,4.805
4.2,-5.6,-6.7,4.898
3.833,-5.133,-6.533,4.9
4.067,-5.967,-6.567,4.902
5.2,-5.8,-7.3,4.903
4.533,-6.133,-7.233,4.905
4.267,-5.667,-6.667,4.997
4.233,-5.833,-6.933,5.0
4.267,-5.967,-7.267,5.006
4.167,-6.267,-6.767,5.008
4.8,-5.7,-6.6,5.098
3.633,-5.733,-7.333,5.1
3.433,-5.933,-7.033,5.102
4.033,-6.633,-7.533,5.103
3.9,-5.9,-7.0,5.105
3.5,-5.5,-6.3,5.198
3.867,-5.967,-7.367,5.2
3.733,-6.133,-8.033,5.202
3.967,-5.367,-7.267,5.203
3.572,-6.255,-6.29,5.21
3.113,-6.373,-6.167,5.298
2.579,-7.042,-6.524,5.3
3.037,-7.026,-7.071,5.302
2.676,-6.648,-6.595,5.303
2.813,-6.973,-5.267,5.305
3.002,-6.796,-5.852,5.398
2.699,-6.702,-6.724,5.4
2.902,-7.496,-7.052,5.402
4.039,-7.322,-6.224,5.405
3.086,-6.329,-5.257,5.407
2.198,-8.753,-5.797,5.499
1.936,-9.238,-5.353,5.501
2.077,-9.315,-5.016,5.509
3.402,-9.047,-4.503,5.51
3.513,-9.052,-4.669,5.512
2.617,-8.146,-3.375,5.599
2.955,-7.203,-3.183,5.6
4.014,-7.726,-3.421,5.602
4.684,-8.228,-3.076,5.603
6.001,-7.873,-2.451,5.606
6.733,-8.883,-0.228,5.698
8.004,-7.601,-0.031,5.7
7.199,-8.025,0.008,5.702
6.051,-6.888,1.446,5.703
4.745,-8.011,0.485,5.715
5.667,-7.719,3.634,5.802
7.49,-7.017,3.581,5.803
6.549,-6.013,4.297,5.805
5.616,-5.032,4.431,5.807
6.448,-4.354,4.295,5.808
5.14,-4.555,6.937,5.901
4.741,-4.928,7.223,5.903
4.501,-4.573,7.386,5.904
4.516,-4.671,7.069,5.906
4.692,-5.014,7.215,5.908
3.36,-4.52,8.3,5.999
3.52,-4.14,8.4,6.007
3.3,-3.6,8.9,6.009
3.42,-3.44,9.6,6.01
2.115,-4.301,10.317,6.012
2.376,-6.555,9.994,6.099
2.794,-7.439,10.373,6.1
2.727,-8.465,10.482,6.106
2.19,-8.498,10.022,6.118
1.837,-8.067,9.359,6.121
-1.933,-10.712,5.22,6.198
-1.878,-10.304,4.873,6.2
-1.816,-10.206,4.71,6.202
-2.016,-10.006,4.51,6.203
-2.12,-9.533,4.388,6.205
-2.018,-10.235,0.703,6.298
-2.252,-10.129,0.913,6.3
-2.067,-9.897,0.955,6.301
-1.895,-9.441,0.774,6.303
-1.302,-9.383,0.93,6.305
-1.573,-9.533,-1.487,6.398
-1.353,-9.533,-1.027,6.4
-1.118,-9.178,-0.509,6.402
-0.253,-9.233,-0.227,6.403
-0.382,-9.322,0.009,6.405
-0.53,-9.221,0.081,6.498
-0.043,-9.374,0.56,6.5
0.734,-9.664,0.596,6.513
0.591,-9.738,1.157,6.515
0.396,-9.915,1.423,6.518
0.796,-10.315,1.223,6.598
1.396,-10.915,0.923,6.6
1.758,-11.066,1.049,6.602
2.068,-11.228,1.392,6.603
2.504,-11.185,1.777,6.606
3.532,-10.207,3.96,6.697
3.384,-10.046,4.42,6.699
2.994,-10.142,4.958,6.705
2.253,-10.699,4.934,6.707
1.761,-10.476,4.524,6.798
1.526,-9.549,4.017,6.8
1.301,-9.06,3.774,6.803
1.111,-9.056,3.711,6.805
0.99,-9.004,3.763,6.806
1.309,-8.113,5.062,6.898
1.098,-8.047,4.76,6.9
0.9,-8.2,4.5,6.911
0.689,-8.434,4.298,6.921
0.453,-8.53,4.111,6.924
-0.526,-8.269,4.424,7.004
-0.614,-8.276,4.377,7.005
-0.637,-8.27,4.206,7.007
0.607,-8.522,3.127,7.009
0.509,-8.527,3.109,7.01
1.158,-7.952,4.25,7.098
1.157,-8.029,4.314,7.1
1.157,-8.029,4.314,7.101
1.062,-8.048,4.29,7.103
0.996,-8.205,4.259,7.104
0.994,-8.357,4.389,7.198
1.185,-8.319,4.436,7.199
1.184,-8.395,4.501,7.201
1.086,-8.643,4.671,7.203
1.018,-8.952,4.77,7.209
0.008,-8.533,5.927,7.298
0.09,-8.659,6.092,7.31
0.196,-8.584,6.037,7.312
0.22,-8.382,5.816,7.315
0.327,-8.306,5.761,7.324
0.424,-8.298,5.78,7.398
0.318,-8.373,5.835,7.399
0.3,-8.3,5.9,7.401
0.308,-8.233,5.827,7.403
0.192,-8.167,5.873,7.409
0.11,-8.041,5.708,7.497
0.049,-8.196,5.559,7.499
-0.031,-8.278,5.476,7.5
-0.151,-8.696,5.759,7.502
-0.29,-9.041,6.108,7.504
-0.388,-9.049,6.09,7.598
-0.276,-8.698,5.88,7.604
-0.002,-8.492,5.418,7.605
0.094,-8.376,4.855,7.607
0.271,-8.386,4.457,7.609
1.457,-8.829,2.914,7.698
1.485,-9.119,3.036,7.699
1.428,-8.89,3.922,7.701
1.3,-9.0,4.1,7.703
1.302,-8.948,4.47,7.704
1.304,-8.895,4.841,7.798
1.338,-8.752,5.01,7.799
1.433,-8.733,5.033,7.806
1.433,-8.733,5.033,7.808
1.492,-9.01,5.018,7.81
0.429,-8.714,5.943,7.899
0.533,-8.431,5.806,7.901
0.441,-8.163,5.633,7.908
0.547,-8.088,5.578,7.91
0.616,-7.865,5.653,7.911
0.712,-7.649,5.59,7.998
0.676,-7.502,5.72,7.999
0.773,-7.494,5.739,8.001
0.747,-7.488,5.878,8.003
0.739,-7.555,5.951,8.017
0.765,-7.561,5.812,8.098
0.9,-7.7,5.7,8.104
1.106,-7.824,5.745,8.106
1.498,-7.792,5.818,8.107
1.543,-7.871,5.614,8.109
1.614,-7.957,5.271,8.198
2.167,-8.069,5.094,8.199
2.81,-8.241,5.008,8.201
2.89,-8.159,5.092,8.203
2.9,-8.4,4.6,8.208
2.39,-9.359,3.392,8.297
2.127,-10.006,2.361,8.299
2.31,-9.641,2.308,8.3
2.388,-9.351,2.31,8.302
3.473,-9.033,1.313,8.398
3.317,-8.929,1.434,8.399
3.218,-9.152,1.17,8.401
2.985,-9.819,0.536,8.403
2.975,-10.381,0.184,8.415
3.72,-9.867,1.945,8.498
3.276,-9.7,2.106,8.499
3.275,-9.633,2.031,8.501
3.082,-9.9,1.529,8.502
3.151,-10.633,0.737,8.504
4.421,-10.288,2.482,8.597
4.325,-10.129,3.193,8.599
4.358,-9.824,3.636,8.601
5.051,-9.328,3.942,8.602
5.943,-7.549,5.684,8.604
5.941,-5.89,7.205,8.697
5.55,-5.415,7.248,8.699
4.267,-4.467,7.433,8.701
3.283,-4.449,7.114,8.702
4.232,-4.564,6.562,8.704
4.321,-4.73,6.405,8.797
4.719,-5.99,5.795,8.799
6.172,-7.484,3.862,8.801
7.468,-6.368,2.089,8.821
5.661,-5.328,2.798,8.824
7.043,-4.786,-0.071,8.915
7.233,-5.351,-1.302,8.919
5.99,-5.865,-1.331,8.921
5.42,-6.169,-1.539,8.926
4.014,-5.348,-0.124,8.928
2.444,-5.78,0.092,9.002
5.268,-8.56,-4.476,9.004
9.92,-8.2,-10.44,9.005
6.428,-5.06,-6.596,9.007
0.191,-6.373,-0.991,9.009
2.797,-7.524,-1.197,9.097
3.463,-6.632,-4.363,9.099
3.901,-8.559,-6.301,9.101
4.022,-8.489,-6.322,9.102
4.33,-7.058,-3.63,9.104
5.802,-6.171,-3.778,9.197
6.149,-5.764,-3.711,9.198
5.849,-6.164,-4.511,9.21
6.702,-6.971,-5.978,9.213
6.293,-6.887,-6.167,9.215
6.696,-7.166,-6.496,9.301
7.012,-6.603,-6.612,9.303
6.052,-6.588,-5.452,9.304
6.463,-6.732,-5.463,9.306
6.333,-6.233,-5.033,9.307
5.462,-6.574,-4.062,9.397
5.242,-7.361,-5.542,9.399
4.932,-7.075,-5.432,9.401
5.071,-6.501,-4.171,9.402
5.0,-6.5,-4.1,9.404
5.7,-6.26,-5.18,9.497
6.156,-6.062,-5.064,9.499
6.078,-5.951,-4.342,9.501
6.233,-6.493,-4.547,9.502
6.667,-6.247,-4.773,9.504
5.88,-6.956,-4.153,9.601
6.184,-6.485,-3.723,9.614
6.65,-6.109,-3.766,9.616
6.312,-6.186,-3.908,9.618
6.246,-6.38,-3.997,9.621
6.079,-6.374,-3.886,9.698
6.378,-5.992,-3.819,9.7
7.122,-5.708,-3.981,9.702
6.697,-6.053,-3.698,9.703
6.512,-6.186,-3.608,9.705
6.882,-5.921,-3.788,9.797
6.664,-6.242,-3.376,9.799
6.379,-6.174,-3.086,9.801
6.673,-5.881,-3.382,9.802
7.089,-5.896,-3.659,9.804
7.244,-5.616,-3.262,9.897
6.678,-5.792,-3.019,9.899
7.177,-5.81,-3.351,9.901
7.398,-5.736,-3.565,9.903
7.255,-5.502,-3.07,9.905
7.186,-5.45,-3.357,9.997
7.609,-5.44,-3.806,10.0
7.464,-5.542,-3.476,10.002
7.096,-5.471,-3.131,10.004
7.545,-5.298,-3.73,10.098
7.658,-5.049,-3.572,10.105
7.561,-5.095,-3.174,10.107
7.269,-5.452,-3.413,10.108
7.577,-5.11,-4.051,10.11
7.737,-5.141,-3.991,10.202
7.658,-5.049,-3.572,10.204
7.271,-5.117,-3.248,10.207
7.356,-5.184,-3.838,10.208
7.418,-5.079,-4.112,10.21
7.331,-5.348,-3.687,10.297
7.361,-5.095,-3.474,10.299
7.547,-4.962,-3.564,10.301
7.487,-5.132,-3.825,10.302
7.458,-5.049,-3.872,10.304
7.321,-5.126,-3.714,10.398
7.107,-5.175,-3.671,10.399
7.276,-5.428,-3.584,10.401
7.395,-5.489,-3.763,10.402
7.378,-5.292,-3.619,10.405
7.869,-4.752,-3.813,10.5
7.869,-4.752,-3.813,10.502
7.72,-4.944,-3.847,10.504
7.919,-4.761,-4.279,10.505
7.427,-4.719,-4.118,10.507
5.953,-5.938,-2.836,10.597
6.442,-6.651,-3.328,10.599
6.432,-6.03,-2.654,10.6
8.315,-5.433,-4.01,10.602
8.747,-4.662,-3.764,10.604
8.344,-4.416,-4.562,10.698
7.843,-5.434,-3.095,10.7
7.479,-5.674,-3.086,10.701
7.014,-5.65,-2.343,10.703
7.37,-6.235,-3.58,10.715
6.94,-5.687,-2.993,10.8
3.225,-6.154,0.117,10.802
5.525,-7.254,-0.883,10.804
7.697,-6.053,-2.198,10.807
8.045,-6.598,-2.73,10.809
4.961,-8.919,-1.921,10.897
3.818,-8.499,0.033,10.899
4.96,-7.591,1.694,10.9
6.162,-7.247,1.064,10.902
6.307,-7.394,1.196,10.903
4.034,-7.442,5.626,10.997
4.137,-7.082,6.492,10.999
4.772,-6.538,7.206,11.0
6.118,-6.028,7.007,11.002
5.958,-6.151,6.165,11.008
5.967,-4.392,7.631,11.097
6.7,-4.129,7.982,11.099
7.633,-3.943,8.827,11.1
8.4,-4.176,9.594,11.125
8.2,-5.035,9.259,11.127
8.267,-5.539,8.243,11.197
8.6,-5.247,8.012,11.2
8.233,-5.155,8.68,11.202
7.633,-5.29,8.639,11.207
7.267,-5.104,7.784,11.209
7.133,-5.102,7.292,11.301
6.633,-5.149,7.204,11.303
6.833,-4.837,7.151,11.305
6.767,-4.775,6.702,11.306
6.433,-5.078,6.486,11.308
5.282,-5.204,7.16,11.397
5.566,-4.814,6.996,11.399
5.731,-4.228,7.091,11.4
5.715,-3.938,7.327,11.402
5.873,-3.783,7.359,11.403
4.32,-1.644,8.469,11.497
4.584,-0.797,8.619,11.498
4.846,0.011,8.398,11.51
4.815,0.957,8.109,11.519
4.563,1.547,7.751,11.522
1.745,2.993,8.199,11.599
2.053,3.886,7.855,11.6
2.027,4.498,7.414,11.602
2.151,4.565,7.409,11.603
0.669,5.339,7.212,11.697
0.336,5.271,6.66,11.699
0.313,4.626,6.608,11.701
0.635,6.269,5.306,11.707
0.596,9.292,3.582,11.709
0.173,9.747,3.13,11.711
1.814,8.78,2.463,11.796
2.065,8.865,1.953,11.798
2.161,8.827,2.092,11.799
2.133,8.767,2.167,11.801
1.138,8.922,0.355,11.885
1.38,9.16,0.1,11.886
1.215,8.865,-0.136,11.898
0.958,8.662,0.255,11.901
1.165,8.795,0.536,11.902
2.775,8.626,2.166,12.033
1.802,8.824,1.856,12.044
1.68,8.645,1.911,12.046
1.593,8.515,2.204,12.047
1.552,8.68,2.47,12.099
1.836,8.874,2.093,12.101
2.028,8.864,1.941,12.102
1.865,8.85,2.263,12.104
1.779,8.721,2.555,12.109
1.952,8.88,2.37,12.11
2.167,8.775,2.319,12.197
2.121,8.867,2.517,12.205
2.121,8.867,2.517,12.207
2.289,8.854,2.664,12.208
2.254,8.705,2.826,12.21
2.248,9.02,2.93,12.297
2.05,9.056,2.614,12.321
2.08,8.645,2.611,12.323
2.237,8.386,3.021,12.324
2.388,8.542,3.136,12.326
2.533,8.625,3.181,12.398
2.498,8.476,3.344,12.4
2.388,8.442,3.536,12.402
2.498,8.476,3.344,12.404
2.764,8.738,3.335,12.406
1.545,9.286,3.167,12.496
1.418,9.029,3.3,12.498
1.418,9.029,3.3,12.499
1.416,9.104,3.367,12.501
1.416,9.104,3.367,12.502
1.459,9.165,3.6,12.597
1.327,9.057,3.567,12.598
1.284,8.996,3.633,12.6
1.194,9.024,3.6,12.602
1.059,9.065,3.7,12.607
1.477,9.641,2.086,12.699
1.436,9.594,2.163,12.701
1.211,9.508,2.119,12.703
1.345,9.617,2.129,12.705
1.386,9.665,2.051,12.706
1.434,9.509,2.11,12.801
1.568,9.618,2.12,12.802
1.616,9.462,2.178,12.818
1.705,9.354,2.159,12.82
1.575,9.414,2.256,12.821
1.618,9.547,2.232,12.875
1.668,9.476,2.343,12.877
1.719,9.489,2.508,12.879
1.669,9.56,2.396,12.881
1.693,7.761,1.687,12.883
